"sender","sender_type","sender_id","Participant_Consent","if-you-would-like-to-receive-a-general-summary-of-the-results-from-this-study-when-it-is-completed-please-provide-your-email-address-below:","","ended_on","duration","time_run","time_render","time_show","time_end","time_commit","timestamp","time_switch","please-record-the-makemodel-and-(diagonal)-screen-size-of-the-device-you-are-using-to-complete-the-experiment-(e.g.-macbook-pro-13.3-in):","how-are-you-controlling-the-cursor-on-your-device-1","how-are-you-controlling-the-cursor-on-your-device-2","how-are-you-controlling-the-cursor-on-your-device-3","what-is-your-age-(years)","vision:","sex:","throw-a-ball:","brush-your-teeth:","eat-soup-with-a-spoon:","comb-your-hair:","cut-bread-with-a-knife:","swing-a-tennisbadminton-racquet-or-bat:","hammer-a-nail:","point-to-something-accurately:","write-your-name:","control-the-cursor-when-using-a-computer:","do-you-play-any-eye-hand-coordination-sports","if-yes-which-sports-do-you-play","Horizontal_Pos","Vertical_Pos","response","response_action","P_Size_L","P_Size_R","P_Size","Position","meta.labjs_version","meta.location","meta.userAgent","meta.platform","meta.language","meta.locale","meta.timeZone","meta.timezoneOffset","meta.screen_width","meta.screen_height","meta.scroll_width","meta.scroll_height","meta.window_innerWidth","meta.window_innerHeight","meta.devicePixelRatio","meta.labjs_build.flavor","meta.labjs_build.commit"
"Consent Form","html.Page","0","1","","","form submission",23298.1,2479,2491.24,2507.9,25806,25808,"2020-07-08T16:08:18.721Z",25821.56,NA,NA,NA,NA,NA,NA,NA,NA,NA,NA,NA,NA,NA,NA,NA,NA,NA,NA,NA,NA,NA,NA,NA,NA,NA,NA,NA,"20.0.1","https://rwlang.github.io/Circle-Size-Experiment/","Mozilla/5.0 (Windows NT 10.0; Win64; x64; rv:78.0) Gecko/20100101 Firefox/78.0","Win32","en-US","en-US","America/New_York",240,1536,864,1536,702,1536,750,1.25,"production","2b713552c16bc7aa9c6da31a44bae8ef1cdc6804"
"Debrief No Consent","html.Page","1",NA,NA,NA,"skipped",NA,25815,NA,NA,25806,25815,"2020-07-08T16:08:18.729Z",25821.56,NA,NA,NA,NA,NA,NA,NA,NA,NA,NA,NA,NA,NA,NA,NA,NA,NA,NA,NA,NA,NA,NA,NA,NA,NA,NA,NA,NA,NA,NA,NA,NA,NA,NA,NA,NA,NA,NA,NA,NA,NA,NA,NA,NA
"Demographics","html.Page","2",NA,NA,"","form submission",74366.44,25815,25804.9,25821.56,100188,100189,"2020-07-08T16:09:33.102Z",100212.04,"Windows, 15.6"" ",TRUE,FALSE,FALSE,"30","1","2","2","2","2","2","2","2","2","2","2","2","2","",NA,NA,NA,NA,NA,NA,NA,NA,NA,NA,NA,NA,NA,NA,NA,NA,NA,NA,NA,NA,NA,NA,NA,NA,NA
"Fullscreen","html.Screen","3",NA,NA,NA,NA,2097.96000000001,100190,100195.38,100212.04,102310,102310,"2020-07-08T16:09:35.223Z",102328.38,NA,NA,NA,NA,NA,NA,NA,NA,NA,NA,NA,NA,NA,NA,NA,NA,NA,NA,NA,NA,NA,NA,NA,NA,NA,NA,NA,NA,NA,NA,NA,NA,NA,NA,NA,NA,NA,NA,NA,NA,NA,NA,NA,NA
"Instructions_1","html.Page","4",NA,NA,"","form submission",9213.62,102310,102311.76,102328.38,111542,111543,"2020-07-08T16:09:44.456Z",111560.58,NA,NA,NA,NA,NA,NA,NA,NA,NA,NA,NA,NA,NA,NA,NA,NA,NA,NA,NA,NA,NA,NA,NA,NA,NA,NA,NA,NA,NA,NA,NA,NA,NA,NA,NA,NA,NA,NA,NA,NA,NA,NA,NA,NA
"Instructions 1.5","html.Page","5",NA,NA,"","form submission",4826.42,111543,111543.92,111560.58,116387,116387,"2020-07-08T16:09:49.301Z",116409.98,NA,NA,NA,NA,NA,NA,NA,NA,NA,NA,NA,NA,NA,NA,NA,NA,NA,NA,NA,NA,NA,NA,NA,NA,NA,NA,NA,NA,NA,NA,NA,NA,NA,NA,NA,NA,NA,NA,NA,NA,NA,NA,NA,NA
"Calibration","canvas.Screen","6_0_0",NA,NA,"Right","response",3334.02,116388,116393.32,116409.98,119744,119749,"2020-07-08T16:09:52.663Z",119776.24,NA,NA,NA,NA,NA,NA,NA,NA,NA,NA,NA,NA,NA,NA,NA,NA,NA,NA,NA,"200","0","Center","click @Center",NA,NA,NA,NA,NA,NA,NA,NA,NA,NA,NA,NA,NA,NA,NA,NA,NA,NA,NA,NA,NA
"Mask","canvas.Screen","6_0_1",NA,NA,"Right","timeout",199.87999999999,119750,119759.58,119776.24,119959.46,119960,"2020-07-08T16:09:52.874Z",119976.12,NA,NA,NA,NA,NA,NA,NA,NA,NA,NA,NA,NA,NA,NA,NA,NA,NA,NA,NA,"200","0",NA,NA,NA,NA,NA,NA,NA,NA,NA,NA,NA,NA,NA,NA,NA,NA,NA,NA,NA,NA,NA,NA,NA
"Sequence","flow.Sequence","6_0",NA,NA,"Right","completion",3549.48000000001,116387,116393.32,116409.98,119959.46,119960,"2020-07-08T16:09:52.874Z",119976.12,NA,NA,NA,NA,NA,NA,NA,NA,NA,NA,NA,NA,NA,NA,NA,NA,NA,NA,NA,"200","0",NA,NA,NA,NA,NA,NA,NA,NA,NA,NA,NA,NA,NA,NA,NA,NA,NA,NA,NA,NA,NA,NA,NA
"Calibration","canvas.Screen","6_1_0",NA,NA,"High","response",2329.88,119961,119959.46,119976.12,122306,122324,"2020-07-08T16:09:55.237Z",122342.56,NA,NA,NA,NA,NA,NA,NA,NA,NA,NA,NA,NA,NA,NA,NA,NA,NA,NA,NA,"0","-150","Center","click @Center",NA,NA,NA,NA,NA,NA,NA,NA,NA,NA,NA,NA,NA,NA,NA,NA,NA,NA,NA,NA,NA
"Mask","canvas.Screen","6_1_1",NA,NA,"High","timeout",199.940000000002,122324,122325.96,122342.56,122525.84,122527,"2020-07-08T16:09:55.440Z",122542.5,NA,NA,NA,NA,NA,NA,NA,NA,NA,NA,NA,NA,NA,NA,NA,NA,NA,NA,NA,"0","-150",NA,NA,NA,NA,NA,NA,NA,NA,NA,NA,NA,NA,NA,NA,NA,NA,NA,NA,NA,NA,NA,NA,NA
"Sequence","flow.Sequence","6_1",NA,NA,"High","completion",2549.72,119961,119959.46,119976.12,122525.84,122527,"2020-07-08T16:09:55.441Z",122542.5,NA,NA,NA,NA,NA,NA,NA,NA,NA,NA,NA,NA,NA,NA,NA,NA,NA,NA,NA,"0","-150",NA,NA,NA,NA,NA,NA,NA,NA,NA,NA,NA,NA,NA,NA,NA,NA,NA,NA,NA,NA,NA,NA,NA
"Calibration","canvas.Screen","6_2_0",NA,NA,"Low","response",5904.5,122527,122525.84,122542.5,128447,128465,"2020-07-08T16:10:01.379Z",128491.76,NA,NA,NA,NA,NA,NA,NA,NA,NA,NA,NA,NA,NA,NA,NA,NA,NA,NA,NA,"0","150","Center","click @Center",NA,NA,NA,NA,NA,NA,NA,NA,NA,NA,NA,NA,NA,NA,NA,NA,NA,NA,NA,NA,NA
"Mask","canvas.Screen","6_2_1",NA,NA,"Low","timeout",199.960000000006,128466,128475.14,128491.76,128675.06,128676,"2020-07-08T16:10:01.590Z",128691.72,NA,NA,NA,NA,NA,NA,NA,NA,NA,NA,NA,NA,NA,NA,NA,NA,NA,NA,NA,"0","150",NA,NA,NA,NA,NA,NA,NA,NA,NA,NA,NA,NA,NA,NA,NA,NA,NA,NA,NA,NA,NA,NA,NA
"Sequence","flow.Sequence","6_2",NA,NA,"Low","completion",6132.56,122527,122525.84,122542.5,128675.06,128676,"2020-07-08T16:10:01.590Z",128691.72,NA,NA,NA,NA,NA,NA,NA,NA,NA,NA,NA,NA,NA,NA,NA,NA,NA,NA,NA,"0","150",NA,NA,NA,NA,NA,NA,NA,NA,NA,NA,NA,NA,NA,NA,NA,NA,NA,NA,NA,NA,NA,NA,NA
"Calibration","canvas.Screen","6_3_0",NA,NA,"Center","response",3193.28,128676,128675.06,128691.72,131885,131901,"2020-07-08T16:10:04.815Z",131924.62,NA,NA,NA,NA,NA,NA,NA,NA,NA,NA,NA,NA,NA,NA,NA,NA,NA,NA,NA,"0","0","Center","click @Center",NA,NA,NA,NA,NA,NA,NA,NA,NA,NA,NA,NA,NA,NA,NA,NA,NA,NA,NA,NA,NA
"Mask","canvas.Screen","6_3_1",NA,NA,"Center","timeout",199.98000000001,131902,131907.96,131924.62,132107.94,132109,"2020-07-08T16:10:05.023Z",132124.6,NA,NA,NA,NA,NA,NA,NA,NA,NA,NA,NA,NA,NA,NA,NA,NA,NA,NA,NA,"0","0",NA,NA,NA,NA,NA,NA,NA,NA,NA,NA,NA,NA,NA,NA,NA,NA,NA,NA,NA,NA,NA,NA,NA
"Sequence","flow.Sequence","6_3",NA,NA,"Center","completion",3416.22,128676,128675.06,128691.72,132107.94,132109,"2020-07-08T16:10:05.023Z",132124.6,NA,NA,NA,NA,NA,NA,NA,NA,NA,NA,NA,NA,NA,NA,NA,NA,NA,NA,NA,"0","0",NA,NA,NA,NA,NA,NA,NA,NA,NA,NA,NA,NA,NA,NA,NA,NA,NA,NA,NA,NA,NA,NA,NA
"Calibration","canvas.Screen","6_4_0",NA,NA,"Left","response",3259.39999999999,132109,132107.94,132124.6,135384,135389,"2020-07-08T16:10:08.303Z",135407.5,NA,NA,NA,NA,NA,NA,NA,NA,NA,NA,NA,NA,NA,NA,NA,NA,NA,NA,NA,"-200","0","Center","click @Center",NA,NA,NA,NA,NA,NA,NA,NA,NA,NA,NA,NA,NA,NA,NA,NA,NA,NA,NA,NA,NA
"Mask","canvas.Screen","6_4_1",NA,NA,"Left","timeout",199.98000000001,135390,135390.84,135407.5,135590.82,135591,"2020-07-08T16:10:08.505Z",135607.48,NA,NA,NA,NA,NA,NA,NA,NA,NA,NA,NA,NA,NA,NA,NA,NA,NA,NA,NA,"-200","0",NA,NA,NA,NA,NA,NA,NA,NA,NA,NA,NA,NA,NA,NA,NA,NA,NA,NA,NA,NA,NA,NA,NA
"Sequence","flow.Sequence","6_4",NA,NA,"Left","completion",3466.22,132109,132107.94,132124.6,135590.82,135591,"2020-07-08T16:10:08.506Z",135607.48,NA,NA,NA,NA,NA,NA,NA,NA,NA,NA,NA,NA,NA,NA,NA,NA,NA,NA,NA,"-200","0",NA,NA,NA,NA,NA,NA,NA,NA,NA,NA,NA,NA,NA,NA,NA,NA,NA,NA,NA,NA,NA,NA,NA
"Screen Setup","flow.Loop","6",NA,NA,NA,"completion",19180.84,116387,116393.32,116409.98,135590.82,135593,"2020-07-08T16:10:08.506Z",135607.48,NA,NA,NA,NA,NA,NA,NA,NA,NA,NA,NA,NA,NA,NA,NA,NA,NA,NA,NA,NA,NA,NA,NA,NA,NA,NA,NA,NA,NA,NA,NA,NA,NA,NA,NA,NA,NA,NA,NA,NA,NA,NA,NA,NA
"Instructions_2","html.Page","7",NA,NA,"","form submission",7415.51999999999,135593,135590.82,135607.48,143023,143023,"2020-07-08T16:10:15.937Z",143039.84,NA,NA,NA,NA,NA,NA,NA,NA,NA,NA,NA,NA,NA,NA,NA,NA,NA,NA,NA,NA,NA,NA,NA,NA,NA,NA,NA,NA,NA,NA,NA,NA,NA,NA,NA,NA,NA,NA,NA,NA,NA,NA,NA,NA
"Instructions_3","html.Page","8",NA,NA,"","form submission",9444.16,143023,143023.16,143039.84,152484,152485,"2020-07-08T16:10:25.398Z",152505.28,NA,NA,NA,NA,NA,NA,NA,NA,NA,NA,NA,NA,NA,NA,NA,NA,NA,NA,NA,NA,NA,NA,NA,NA,NA,NA,NA,NA,NA,NA,NA,NA,NA,NA,NA,NA,NA,NA,NA,NA,NA,NA,NA,NA
"Start Button","canvas.Screen","9_0_0",NA,NA,NA,"response",1894.72,152485,152488.62,152505.28,154400,154423,"2020-07-08T16:10:27.336Z",154454.98,NA,NA,NA,NA,NA,NA,NA,NA,NA,NA,NA,NA,NA,NA,NA,NA,NA,NA,NA,NA,NA,"Start Position","click @Start_Button","P_Small_3.png","P_Large_3.png",NA,NA,NA,NA,NA,NA,NA,NA,NA,NA,NA,NA,NA,NA,NA,NA,NA,NA,NA
"Mask","canvas.Screen","9_0_1",NA,NA,NA,"timeout",199.979999999981,154424,154438.32,154454.98,154638.3,154640,"2020-07-08T16:10:27.553Z",154654.96,NA,NA,NA,NA,NA,NA,NA,NA,NA,NA,NA,NA,NA,NA,NA,NA,NA,NA,NA,NA,NA,NA,NA,"P_Small_3.png","P_Large_3.png",NA,NA,NA,NA,NA,NA,NA,NA,NA,NA,NA,NA,NA,NA,NA,NA,NA,NA,NA
"Comparison","canvas.Screen","9_0_2",NA,NA,NA,"response",6526.04000000001,154641,154638.3,154654.96,161181,161199,"2020-07-08T16:10:34.113Z",161220.86,NA,NA,NA,NA,NA,NA,NA,NA,NA,NA,NA,NA,NA,NA,NA,NA,NA,NA,NA,NA,NA,"Respond_Right","click @Response_Right","P_Small_3.png","P_Large_3.png",NA,NA,NA,NA,NA,NA,NA,NA,NA,NA,NA,NA,NA,NA,NA,NA,NA,NA,NA
"Sequence","flow.Sequence","9_0",NA,NA,NA,"completion",8675.72,152485,152488.62,152505.28,161181,161199,"2020-07-08T16:10:34.113Z",161220.86,NA,NA,NA,NA,NA,NA,NA,NA,NA,NA,NA,NA,NA,NA,NA,NA,NA,NA,NA,NA,NA,NA,NA,"P_Small_3.png","P_Large_3.png",NA,NA,NA,NA,NA,NA,NA,NA,NA,NA,NA,NA,NA,NA,NA,NA,NA,NA,NA
"Start Button","canvas.Screen","9_1_0",NA,NA,NA,"response",1695.14000000001,161200,161204.26,161220.86,162916,162925,"2020-07-08T16:10:35.839Z",162953.98,NA,NA,NA,NA,NA,NA,NA,NA,NA,NA,NA,NA,NA,NA,NA,NA,NA,NA,NA,NA,NA,"Start Position","click @Start_Button","P_Large_3.png","P_Small_3.png",NA,NA,NA,NA,NA,NA,NA,NA,NA,NA,NA,NA,NA,NA,NA,NA,NA,NA,NA
"Mask","canvas.Screen","9_1_1",NA,NA,NA,"timeout",199.979999999981,162925,162937.4,162953.98,163137.3,163138,"2020-07-08T16:10:36.052Z",163153.96,NA,NA,NA,NA,NA,NA,NA,NA,NA,NA,NA,NA,NA,NA,NA,NA,NA,NA,NA,NA,NA,NA,NA,"P_Large_3.png","P_Small_3.png",NA,NA,NA,NA,NA,NA,NA,NA,NA,NA,NA,NA,NA,NA,NA,NA,NA,NA,NA
"Comparison","canvas.Screen","9_1_2",NA,NA,NA,"response",5902.04000000001,163139,163137.3,163153.96,169056,169060,"2020-07-08T16:10:41.974Z",169086.5,NA,NA,NA,NA,NA,NA,NA,NA,NA,NA,NA,NA,NA,NA,NA,NA,NA,NA,NA,NA,NA,"Respond_Right","click @Response_Right","P_Large_3.png","P_Small_3.png",NA,NA,NA,NA,NA,NA,NA,NA,NA,NA,NA,NA,NA,NA,NA,NA,NA,NA,NA
"Sequence","flow.Sequence","9_1",NA,NA,NA,"completion",7835.14000000001,161200,161204.26,161220.86,169056,169061,"2020-07-08T16:10:41.974Z",169086.5,NA,NA,NA,NA,NA,NA,NA,NA,NA,NA,NA,NA,NA,NA,NA,NA,NA,NA,NA,NA,NA,NA,NA,"P_Large_3.png","P_Small_3.png",NA,NA,NA,NA,NA,NA,NA,NA,NA,NA,NA,NA,NA,NA,NA,NA,NA,NA,NA
"Start Button","canvas.Screen","9_2_0",NA,NA,NA,"response",1236.5,169061,169069.92,169086.5,170323,170343,"2020-07-08T16:10:43.257Z",170369.72,NA,NA,NA,NA,NA,NA,NA,NA,NA,NA,NA,NA,NA,NA,NA,NA,NA,NA,NA,NA,NA,"Start Position","click @Start_Button","P_Large_3.png","Control_3 (Small).png",NA,NA,NA,NA,NA,NA,NA,NA,NA,NA,NA,NA,NA,NA,NA,NA,NA,NA,NA
"Mask","canvas.Screen","9_2_1",NA,NA,NA,"timeout",199.899999999994,170343,170353.06,170369.72,170552.96,170553,"2020-07-08T16:10:43.468Z",170569.62,NA,NA,NA,NA,NA,NA,NA,NA,NA,NA,NA,NA,NA,NA,NA,NA,NA,NA,NA,NA,NA,NA,NA,"P_Large_3.png","Control_3 (Small).png",NA,NA,NA,NA,NA,NA,NA,NA,NA,NA,NA,NA,NA,NA,NA,NA,NA,NA,NA
"Comparison","canvas.Screen","9_2_2",NA,NA,NA,"response",1940.38,170554,170552.96,170569.62,172510,172519,"2020-07-08T16:10:45.433Z",172536.02,NA,NA,NA,NA,NA,NA,NA,NA,NA,NA,NA,NA,NA,NA,NA,NA,NA,NA,NA,NA,NA,"Respond_Left","click @Response_Left","P_Large_3.png","Control_3 (Small).png",NA,NA,NA,NA,NA,NA,NA,NA,NA,NA,NA,NA,NA,NA,NA,NA,NA,NA,NA
"Sequence","flow.Sequence","9_2",NA,NA,NA,"completion",3423.5,169061,169069.92,169086.5,172510,172519,"2020-07-08T16:10:45.433Z",172536.02,NA,NA,NA,NA,NA,NA,NA,NA,NA,NA,NA,NA,NA,NA,NA,NA,NA,NA,NA,NA,NA,NA,NA,"P_Large_3.png","Control_3 (Small).png",NA,NA,NA,NA,NA,NA,NA,NA,NA,NA,NA,NA,NA,NA,NA,NA,NA,NA,NA
"Start Button","canvas.Screen","9_3_0",NA,NA,NA,"response",1582.98000000001,172519,172519.36,172536.02,174119,174134,"2020-07-08T16:10:47.048Z",174152.54,NA,NA,NA,NA,NA,NA,NA,NA,NA,NA,NA,NA,NA,NA,NA,NA,NA,NA,NA,NA,NA,"Start Position","click @Start_Button","P_Small_3.png","Control_3 (Big).png",NA,NA,NA,NA,NA,NA,NA,NA,NA,NA,NA,NA,NA,NA,NA,NA,NA,NA,NA
"Mask","canvas.Screen","9_3_1",NA,NA,NA,"timeout",199.959999999992,174134,174135.94,174152.54,174335.82,174336,"2020-07-08T16:10:47.250Z",174352.5,NA,NA,NA,NA,NA,NA,NA,NA,NA,NA,NA,NA,NA,NA,NA,NA,NA,NA,NA,NA,NA,NA,NA,"P_Small_3.png","Control_3 (Big).png",NA,NA,NA,NA,NA,NA,NA,NA,NA,NA,NA,NA,NA,NA,NA,NA,NA,NA,NA
"Comparison","canvas.Screen","9_3_2",NA,NA,NA,"response",1438.5,174336,174335.82,174352.5,175791,175800,"2020-07-08T16:10:48.715Z",175818.96,NA,NA,NA,NA,NA,NA,NA,NA,NA,NA,NA,NA,NA,NA,NA,NA,NA,NA,NA,NA,NA,"Respond_Right","click @Response_Right","P_Small_3.png","Control_3 (Big).png",NA,NA,NA,NA,NA,NA,NA,NA,NA,NA,NA,NA,NA,NA,NA,NA,NA,NA,NA
"Sequence","flow.Sequence","9_3",NA,NA,NA,"completion",3254.98000000001,172519,172519.36,172536.02,175791,175800,"2020-07-08T16:10:48.715Z",175818.96,NA,NA,NA,NA,NA,NA,NA,NA,NA,NA,NA,NA,NA,NA,NA,NA,NA,NA,NA,NA,NA,NA,NA,"P_Small_3.png","Control_3 (Big).png",NA,NA,NA,NA,NA,NA,NA,NA,NA,NA,NA,NA,NA,NA,NA,NA,NA,NA,NA
"Start Button","canvas.Screen","9_4_0",NA,NA,NA,"response",1331.04000000001,175800,175802.3,175818.96,177150,177164,"2020-07-08T16:10:50.078Z",177185.44,NA,NA,NA,NA,NA,NA,NA,NA,NA,NA,NA,NA,NA,NA,NA,NA,NA,NA,NA,NA,NA,"Start Position","click @Start_Button","P_Small_3.png","Control_3 (Small).png",NA,NA,NA,NA,NA,NA,NA,NA,NA,NA,NA,NA,NA,NA,NA,NA,NA,NA,NA
"Mask","canvas.Screen","9_4_1",NA,NA,NA,"timeout",199.98000000001,177164,177168.78,177185.44,177368.74,177370,"2020-07-08T16:10:50.283Z",177385.42,NA,NA,NA,NA,NA,NA,NA,NA,NA,NA,NA,NA,NA,NA,NA,NA,NA,NA,NA,NA,NA,NA,NA,"P_Small_3.png","Control_3 (Small).png",NA,NA,NA,NA,NA,NA,NA,NA,NA,NA,NA,NA,NA,NA,NA,NA,NA,NA,NA
"Comparison","canvas.Screen","9_4_2",NA,NA,NA,"response",2562.57999999999,177370,177368.74,177385.42,179948,179959,"2020-07-08T16:10:52.873Z",179985.1,NA,NA,NA,NA,NA,NA,NA,NA,NA,NA,NA,NA,NA,NA,NA,NA,NA,NA,NA,NA,NA,"Respond_Left","click @Response_Left","P_Small_3.png","Control_3 (Small).png",NA,NA,NA,NA,NA,NA,NA,NA,NA,NA,NA,NA,NA,NA,NA,NA,NA,NA,NA
"Sequence","flow.Sequence","9_4",NA,NA,NA,"completion",4129.04000000001,175800,175802.3,175818.96,179948,179959,"2020-07-08T16:10:52.873Z",179985.1,NA,NA,NA,NA,NA,NA,NA,NA,NA,NA,NA,NA,NA,NA,NA,NA,NA,NA,NA,NA,NA,NA,NA,"P_Small_3.png","Control_3 (Small).png",NA,NA,NA,NA,NA,NA,NA,NA,NA,NA,NA,NA,NA,NA,NA,NA,NA,NA,NA
"Start Button","canvas.Screen","9_5_0",NA,NA,NA,"response",1430.89999999999,179959,179968.44,179985.1,181416,181419,"2020-07-08T16:10:54.333Z",181451.58,NA,NA,NA,NA,NA,NA,NA,NA,NA,NA,NA,NA,NA,NA,NA,NA,NA,NA,NA,NA,NA,"Start Position","click @Start_Button","P_Large_3.png","Control_3 (Big).png",NA,NA,NA,NA,NA,NA,NA,NA,NA,NA,NA,NA,NA,NA,NA,NA,NA,NA,NA
"Mask","canvas.Screen","9_5_1",NA,NA,NA,"timeout",199.960000000021,181419,181434.92,181451.58,181634.88,181636,"2020-07-08T16:10:54.549Z",181651.54,NA,NA,NA,NA,NA,NA,NA,NA,NA,NA,NA,NA,NA,NA,NA,NA,NA,NA,NA,NA,NA,NA,NA,"P_Large_3.png","Control_3 (Big).png",NA,NA,NA,NA,NA,NA,NA,NA,NA,NA,NA,NA,NA,NA,NA,NA,NA,NA,NA
"Comparison","canvas.Screen","9_5_2",NA,NA,NA,"response",1545.45999999999,181636,181634.88,181651.54,183197,183204,"2020-07-08T16:10:56.117Z",183234.7,NA,NA,NA,NA,NA,NA,NA,NA,NA,NA,NA,NA,NA,NA,NA,NA,NA,NA,NA,NA,NA,"Respond_Right","click @Response_Right","P_Large_3.png","Control_3 (Big).png",NA,NA,NA,NA,NA,NA,NA,NA,NA,NA,NA,NA,NA,NA,NA,NA,NA,NA,NA
"Sequence","flow.Sequence","9_5",NA,NA,NA,"completion",3211.89999999999,179959,179968.44,179985.1,183197,183204,"2020-07-08T16:10:56.118Z",183234.7,NA,NA,NA,NA,NA,NA,NA,NA,NA,NA,NA,NA,NA,NA,NA,NA,NA,NA,NA,NA,NA,NA,NA,"P_Large_3.png","Control_3 (Big).png",NA,NA,NA,NA,NA,NA,NA,NA,NA,NA,NA,NA,NA,NA,NA,NA,NA,NA,NA
"Start Button","canvas.Screen","9_6_0",NA,NA,NA,"response",1462.29999999999,183204,183218.1,183234.7,184697,184723,"2020-07-08T16:10:57.637Z",184751.18,NA,NA,NA,NA,NA,NA,NA,NA,NA,NA,NA,NA,NA,NA,NA,NA,NA,NA,NA,NA,NA,"Start Position","click @Start_Button","P_Large_3.png","Control_3.png",NA,NA,NA,NA,NA,NA,NA,NA,NA,NA,NA,NA,NA,NA,NA,NA,NA,NA,NA
"Mask","canvas.Screen","9_6_1",NA,NA,NA,"timeout",199.940000000002,184723,184734.7,184751.18,184934.46,184935,"2020-07-08T16:10:57.849Z",184951.12,NA,NA,NA,NA,NA,NA,NA,NA,NA,NA,NA,NA,NA,NA,NA,NA,NA,NA,NA,NA,NA,NA,NA,"P_Large_3.png","Control_3.png",NA,NA,NA,NA,NA,NA,NA,NA,NA,NA,NA,NA,NA,NA,NA,NA,NA,NA,NA
"Comparison","canvas.Screen","9_6_2",NA,NA,NA,"response",1042.88,184935,184934.46,184951.12,185994,185998,"2020-07-08T16:10:58.912Z",186017.62,NA,NA,NA,NA,NA,NA,NA,NA,NA,NA,NA,NA,NA,NA,NA,NA,NA,NA,NA,NA,NA,"Respond_Left","click @Response_Left","P_Large_3.png","Control_3.png",NA,NA,NA,NA,NA,NA,NA,NA,NA,NA,NA,NA,NA,NA,NA,NA,NA,NA,NA
"Sequence","flow.Sequence","9_6",NA,NA,NA,"completion",2759.29999999999,183204,183218.1,183234.7,185994,185999,"2020-07-08T16:10:58.913Z",186017.62,NA,NA,NA,NA,NA,NA,NA,NA,NA,NA,NA,NA,NA,NA,NA,NA,NA,NA,NA,NA,NA,NA,NA,"P_Large_3.png","Control_3.png",NA,NA,NA,NA,NA,NA,NA,NA,NA,NA,NA,NA,NA,NA,NA,NA,NA,NA,NA
"Start Button","canvas.Screen","9_7_0",NA,NA,NA,"response",1319.38,185999,186001.02,186017.62,187337,187355,"2020-07-08T16:11:00.269Z",187384.06,NA,NA,NA,NA,NA,NA,NA,NA,NA,NA,NA,NA,NA,NA,NA,NA,NA,NA,NA,NA,NA,"Start Position","click @Start_Button","Control_3.png","Control_3 (Small).png",NA,NA,NA,NA,NA,NA,NA,NA,NA,NA,NA,NA,NA,NA,NA,NA,NA,NA,NA
"Mask","canvas.Screen","9_7_1",NA,NA,NA,"timeout",199.98000000001,187355,187367.4,187384.06,187567.38,187568,"2020-07-08T16:11:00.482Z",187584.04,NA,NA,NA,NA,NA,NA,NA,NA,NA,NA,NA,NA,NA,NA,NA,NA,NA,NA,NA,NA,NA,NA,NA,"Control_3.png","Control_3 (Small).png",NA,NA,NA,NA,NA,NA,NA,NA,NA,NA,NA,NA,NA,NA,NA,NA,NA,NA,NA
"Comparison","canvas.Screen","9_7_2",NA,NA,NA,"response",2065.95999999999,187568,187567.38,187584.04,189650,189663,"2020-07-08T16:11:02.577Z",189683.78,NA,NA,NA,NA,NA,NA,NA,NA,NA,NA,NA,NA,NA,NA,NA,NA,NA,NA,NA,NA,NA,"Respond_Left","click @Response_Left","Control_3.png","Control_3 (Small).png",NA,NA,NA,NA,NA,NA,NA,NA,NA,NA,NA,NA,NA,NA,NA,NA,NA,NA,NA
"Sequence","flow.Sequence","9_7",NA,NA,NA,"completion",3632.38,185999,186001.02,186017.62,189650,189664,"2020-07-08T16:11:02.578Z",189683.78,NA,NA,NA,NA,NA,NA,NA,NA,NA,NA,NA,NA,NA,NA,NA,NA,NA,NA,NA,NA,NA,NA,NA,"Control_3.png","Control_3 (Small).png",NA,NA,NA,NA,NA,NA,NA,NA,NA,NA,NA,NA,NA,NA,NA,NA,NA,NA,NA
"Start Button","canvas.Screen","9_8_0",NA,NA,NA,"response",1295.22,189664,189667.2,189683.78,190979,190991,"2020-07-08T16:11:03.904Z",191017.08,NA,NA,NA,NA,NA,NA,NA,NA,NA,NA,NA,NA,NA,NA,NA,NA,NA,NA,NA,NA,NA,"Start Position","click @Start_Button","Control_3.png","P_Small_3.png",NA,NA,NA,NA,NA,NA,NA,NA,NA,NA,NA,NA,NA,NA,NA,NA,NA,NA,NA
"Mask","canvas.Screen","9_8_1",NA,NA,NA,"timeout",199.860000000015,190991,191000.42,191017.08,191200.28,191201,"2020-07-08T16:11:04.115Z",191216.94,NA,NA,NA,NA,NA,NA,NA,NA,NA,NA,NA,NA,NA,NA,NA,NA,NA,NA,NA,NA,NA,NA,NA,"Control_3.png","P_Small_3.png",NA,NA,NA,NA,NA,NA,NA,NA,NA,NA,NA,NA,NA,NA,NA,NA,NA,NA,NA
"Comparison","canvas.Screen","9_8_2",NA,NA,NA,"response",1558.06,191201,191200.28,191216.94,192775,192790,"2020-07-08T16:11:05.703Z",192816.74,NA,NA,NA,NA,NA,NA,NA,NA,NA,NA,NA,NA,NA,NA,NA,NA,NA,NA,NA,NA,NA,"Respond_Left","click @Response_Left","Control_3.png","P_Small_3.png",NA,NA,NA,NA,NA,NA,NA,NA,NA,NA,NA,NA,NA,NA,NA,NA,NA,NA,NA
"Sequence","flow.Sequence","9_8",NA,NA,NA,"completion",3091.22,189664,189667.2,189683.78,192775,192790,"2020-07-08T16:11:05.704Z",192816.74,NA,NA,NA,NA,NA,NA,NA,NA,NA,NA,NA,NA,NA,NA,NA,NA,NA,NA,NA,NA,NA,NA,NA,"Control_3.png","P_Small_3.png",NA,NA,NA,NA,NA,NA,NA,NA,NA,NA,NA,NA,NA,NA,NA,NA,NA,NA,NA
"Start Button","canvas.Screen","9_9_0",NA,NA,NA,"response",1286.26000000001,192790,192800.2,192816.74,194103,194118,"2020-07-08T16:11:07.032Z",194149.9,NA,NA,NA,NA,NA,NA,NA,NA,NA,NA,NA,NA,NA,NA,NA,NA,NA,NA,NA,NA,NA,"Start Position","click @Start_Button","P_Small_3.png","Control_3.png",NA,NA,NA,NA,NA,NA,NA,NA,NA,NA,NA,NA,NA,NA,NA,NA,NA,NA,NA
"Mask","canvas.Screen","9_9_1",NA,NA,NA,"timeout",199.98000000001,194118,194133.24,194149.9,194333.2,194334,"2020-07-08T16:11:07.248Z",194349.88,NA,NA,NA,NA,NA,NA,NA,NA,NA,NA,NA,NA,NA,NA,NA,NA,NA,NA,NA,NA,NA,NA,NA,"P_Small_3.png","Control_3.png",NA,NA,NA,NA,NA,NA,NA,NA,NA,NA,NA,NA,NA,NA,NA,NA,NA,NA,NA
"Comparison","canvas.Screen","9_9_2",NA,NA,NA,"response",1301.12,194334,194333.2,194349.88,195651,195667,"2020-07-08T16:11:08.581Z",195683.06,NA,NA,NA,NA,NA,NA,NA,NA,NA,NA,NA,NA,NA,NA,NA,NA,NA,NA,NA,NA,NA,"Respond_Right","click @Response_Right","P_Small_3.png","Control_3.png",NA,NA,NA,NA,NA,NA,NA,NA,NA,NA,NA,NA,NA,NA,NA,NA,NA,NA,NA
"Sequence","flow.Sequence","9_9",NA,NA,NA,"completion",2834.26000000001,192790,192800.2,192816.74,195651,195668,"2020-07-08T16:11:08.581Z",195683.06,NA,NA,NA,NA,NA,NA,NA,NA,NA,NA,NA,NA,NA,NA,NA,NA,NA,NA,NA,NA,NA,NA,NA,"P_Small_3.png","Control_3.png",NA,NA,NA,NA,NA,NA,NA,NA,NA,NA,NA,NA,NA,NA,NA,NA,NA,NA,NA
"Start Button","canvas.Screen","9_10_0",NA,NA,NA,"response",1216.94,195669,195666.4,195683.06,196900,196913,"2020-07-08T16:11:09.826Z",196932.84,NA,NA,NA,NA,NA,NA,NA,NA,NA,NA,NA,NA,NA,NA,NA,NA,NA,NA,NA,NA,NA,"Start Position","click @Start_Button","Control_3.png","Control_3 (Big).png",NA,NA,NA,NA,NA,NA,NA,NA,NA,NA,NA,NA,NA,NA,NA,NA,NA,NA,NA
"Mask","canvas.Screen","9_10_1",NA,NA,NA,"timeout",199.98000000001,196913,196916.3,196932.84,197116.16,197117,"2020-07-08T16:11:10.031Z",197132.82,NA,NA,NA,NA,NA,NA,NA,NA,NA,NA,NA,NA,NA,NA,NA,NA,NA,NA,NA,NA,NA,NA,NA,"Control_3.png","Control_3 (Big).png",NA,NA,NA,NA,NA,NA,NA,NA,NA,NA,NA,NA,NA,NA,NA,NA,NA,NA,NA
"Comparison","canvas.Screen","9_10_2",NA,NA,NA,"response",1314.17999999999,197118,197116.16,197132.82,198447,198467,"2020-07-08T16:11:11.382Z",198499.3,NA,NA,NA,NA,NA,NA,NA,NA,NA,NA,NA,NA,NA,NA,NA,NA,NA,NA,NA,NA,NA,"Respond_Right","click @Response_Right","Control_3.png","Control_3 (Big).png",NA,NA,NA,NA,NA,NA,NA,NA,NA,NA,NA,NA,NA,NA,NA,NA,NA,NA,NA
"Sequence","flow.Sequence","9_10",NA,NA,NA,"completion",2763.94,195668,195666.4,195683.06,198447,198468,"2020-07-08T16:11:11.382Z",198499.3,NA,NA,NA,NA,NA,NA,NA,NA,NA,NA,NA,NA,NA,NA,NA,NA,NA,NA,NA,NA,NA,NA,NA,"Control_3.png","Control_3 (Big).png",NA,NA,NA,NA,NA,NA,NA,NA,NA,NA,NA,NA,NA,NA,NA,NA,NA,NA,NA
"Start Button","canvas.Screen","9_11_0",NA,NA,NA,"response",1337.70000000001,198469,198482.62,198499.3,199837,199847,"2020-07-08T16:11:12.761Z",199865.88,NA,NA,NA,NA,NA,NA,NA,NA,NA,NA,NA,NA,NA,NA,NA,NA,NA,NA,NA,NA,NA,"Start Position","click @Start_Button","Control_3.png","P_Large_3.png",NA,NA,NA,NA,NA,NA,NA,NA,NA,NA,NA,NA,NA,NA,NA,NA,NA,NA,NA
"Mask","canvas.Screen","9_11_1",NA,NA,NA,"timeout",199.959999999992,199847,199849.22,199865.88,200049.16,200051,"2020-07-08T16:11:12.964Z",200065.84,NA,NA,NA,NA,NA,NA,NA,NA,NA,NA,NA,NA,NA,NA,NA,NA,NA,NA,NA,NA,NA,NA,NA,"Control_3.png","P_Large_3.png",NA,NA,NA,NA,NA,NA,NA,NA,NA,NA,NA,NA,NA,NA,NA,NA,NA,NA,NA
"Comparison","canvas.Screen","9_11_2",NA,NA,NA,"response",1632.16,200051,200049.16,200065.84,201698,201713,"2020-07-08T16:11:14.627Z",201732.24,NA,NA,NA,NA,NA,NA,NA,NA,NA,NA,NA,NA,NA,NA,NA,NA,NA,NA,NA,NA,NA,"Respond_Right","click @Response_Right","Control_3.png","P_Large_3.png",NA,NA,NA,NA,NA,NA,NA,NA,NA,NA,NA,NA,NA,NA,NA,NA,NA,NA,NA
"Sequence","flow.Sequence","9_11",NA,NA,NA,"completion",3198.70000000001,198469,198482.62,198499.3,201698,201714,"2020-07-08T16:11:14.627Z",201732.24,NA,NA,NA,NA,NA,NA,NA,NA,NA,NA,NA,NA,NA,NA,NA,NA,NA,NA,NA,NA,NA,NA,NA,"Control_3.png","P_Large_3.png",NA,NA,NA,NA,NA,NA,NA,NA,NA,NA,NA,NA,NA,NA,NA,NA,NA,NA,NA
"Perceptual Comparison","flow.Loop","9",NA,NA,NA,"completion",49192.72,152485,152488.62,152505.28,201698,201714,"2020-07-08T16:11:14.628Z",201732.24,NA,NA,NA,NA,NA,NA,NA,NA,NA,NA,NA,NA,NA,NA,NA,NA,NA,NA,NA,NA,NA,NA,NA,NA,NA,NA,NA,NA,NA,NA,NA,NA,NA,NA,NA,NA,NA,NA,NA,NA,NA,NA,NA,NA
"Practice Instructions","html.Page","10",NA,NA,"","form submission",10522.76,201714,201715.66,201732.24,212255,212256,"2020-07-08T16:11:25.169Z",212281.04,NA,NA,NA,NA,NA,NA,NA,NA,NA,NA,NA,NA,NA,NA,NA,NA,NA,NA,NA,NA,NA,NA,NA,NA,NA,NA,NA,NA,NA,NA,NA,NA,NA,NA,NA,NA,NA,NA,NA,NA,NA,NA,NA,NA
"Start Button","canvas.Screen","11_0_0",NA,NA,NA,"response",1337.95999999999,212256,212264.38,212281.04,213619,213622,"2020-07-08T16:11:26.536Z",213647.44,NA,NA,NA,NA,NA,NA,NA,NA,NA,NA,NA,NA,NA,NA,NA,NA,NA,NA,NA,NA,NA,"Start Position","click @Start_Button",NA,NA,"P_Small_3.png","200",NA,NA,NA,NA,NA,NA,NA,NA,NA,NA,NA,NA,NA,NA,NA,NA,NA
"Mask","canvas.Screen","11_0_1",NA,NA,NA,"timeout",199.940000000002,213623,213630.88,213647.44,213830.72,213832,"2020-07-08T16:11:26.745Z",213847.38,NA,NA,NA,NA,NA,NA,NA,NA,NA,NA,NA,NA,NA,NA,NA,NA,NA,NA,NA,NA,NA,NA,NA,NA,NA,"P_Small_3.png","200",NA,NA,NA,NA,NA,NA,NA,NA,NA,NA,NA,NA,NA,NA,NA,NA,NA
"Practice","canvas.Screen","11_0_2",NA,NA,NA,"response",911.619999999995,213832,213830.72,213847.38,214759,214780,"2020-07-08T16:11:27.694Z",214797.28,NA,NA,NA,NA,NA,NA,NA,NA,NA,NA,NA,NA,NA,NA,NA,NA,NA,NA,NA,NA,NA,"Respond_Right","click @Response_Right",NA,NA,"P_Small_3.png","200",NA,NA,NA,NA,NA,NA,NA,NA,NA,NA,NA,NA,NA,NA,NA,NA,NA
"Sequence","flow.Sequence","11_0",NA,NA,NA,"completion",2477.95999999999,212256,212264.38,212281.04,214759,214781,"2020-07-08T16:11:27.695Z",214797.28,NA,NA,NA,NA,NA,NA,NA,NA,NA,NA,NA,NA,NA,NA,NA,NA,NA,NA,NA,NA,NA,NA,NA,NA,NA,"P_Small_3.png","200",NA,NA,NA,NA,NA,NA,NA,NA,NA,NA,NA,NA,NA,NA,NA,NA,NA
"Start Button","canvas.Screen","11_1_0",NA,NA,NA,"response",1274.72,214782,214780.62,214797.28,216072,216085,"2020-07-08T16:11:28.999Z",216113.74,NA,NA,NA,NA,NA,NA,NA,NA,NA,NA,NA,NA,NA,NA,NA,NA,NA,NA,NA,NA,NA,"Start Position","click @Start_Button",NA,NA,"Control_3 (Small).png","200",NA,NA,NA,NA,NA,NA,NA,NA,NA,NA,NA,NA,NA,NA,NA,NA,NA
"Mask","canvas.Screen","11_1_1",NA,NA,NA,"timeout",199.960000000021,216085,216097.06,216113.74,216297.04,216298,"2020-07-08T16:11:29.211Z",216313.7,NA,NA,NA,NA,NA,NA,NA,NA,NA,NA,NA,NA,NA,NA,NA,NA,NA,NA,NA,NA,NA,NA,NA,NA,NA,"Control_3 (Small).png","200",NA,NA,NA,NA,NA,NA,NA,NA,NA,NA,NA,NA,NA,NA,NA,NA,NA
"Practice","canvas.Screen","11_1_2",NA,NA,NA,"response",961.299999999988,216298,216297.04,216313.7,217275,217287,"2020-07-08T16:11:30.201Z",217313.62,NA,NA,NA,NA,NA,NA,NA,NA,NA,NA,NA,NA,NA,NA,NA,NA,NA,NA,NA,NA,NA,"Respond_Right","click @Response_Right",NA,NA,"Control_3 (Small).png","200",NA,NA,NA,NA,NA,NA,NA,NA,NA,NA,NA,NA,NA,NA,NA,NA,NA
"Sequence","flow.Sequence","11_1",NA,NA,NA,"completion",2477.72,214782,214780.62,214797.28,217275,217287,"2020-07-08T16:11:30.201Z",217313.62,NA,NA,NA,NA,NA,NA,NA,NA,NA,NA,NA,NA,NA,NA,NA,NA,NA,NA,NA,NA,NA,NA,NA,NA,NA,"Control_3 (Small).png","200",NA,NA,NA,NA,NA,NA,NA,NA,NA,NA,NA,NA,NA,NA,NA,NA,NA
"Start Button","canvas.Screen","11_2_0",NA,NA,NA,"response",1414.38,217288,217296.96,217313.62,218728,218740,"2020-07-08T16:11:31.654Z",218763.46,NA,NA,NA,NA,NA,NA,NA,NA,NA,NA,NA,NA,NA,NA,NA,NA,NA,NA,NA,NA,NA,"Start Position","click @Start_Button",NA,NA,"Control_3.png","-200",NA,NA,NA,NA,NA,NA,NA,NA,NA,NA,NA,NA,NA,NA,NA,NA,NA
"Mask","canvas.Screen","11_2_1",NA,NA,NA,"timeout",199.940000000002,218740,218746.8,218763.46,218946.74,218947,"2020-07-08T16:11:31.861Z",218963.4,NA,NA,NA,NA,NA,NA,NA,NA,NA,NA,NA,NA,NA,NA,NA,NA,NA,NA,NA,NA,NA,NA,NA,NA,NA,"Control_3.png","-200",NA,NA,NA,NA,NA,NA,NA,NA,NA,NA,NA,NA,NA,NA,NA,NA,NA
"Practice","canvas.Screen","11_2_2",NA,NA,NA,"response",967.600000000006,218948,218946.74,218963.4,219931,219935,"2020-07-08T16:11:32.849Z",219963.22,NA,NA,NA,NA,NA,NA,NA,NA,NA,NA,NA,NA,NA,NA,NA,NA,NA,NA,NA,NA,NA,"Respond_Left","click @Response_Left",NA,NA,"Control_3.png","-200",NA,NA,NA,NA,NA,NA,NA,NA,NA,NA,NA,NA,NA,NA,NA,NA,NA
"Sequence","flow.Sequence","11_2",NA,NA,NA,"completion",2617.38,217288,217296.96,217313.62,219931,219935,"2020-07-08T16:11:32.849Z",219963.22,NA,NA,NA,NA,NA,NA,NA,NA,NA,NA,NA,NA,NA,NA,NA,NA,NA,NA,NA,NA,NA,NA,NA,NA,NA,"Control_3.png","-200",NA,NA,NA,NA,NA,NA,NA,NA,NA,NA,NA,NA,NA,NA,NA,NA,NA
"Start Button","canvas.Screen","11_3_0",NA,NA,NA,"response",1420.78,219935,219946.64,219963.22,221384,221395,"2020-07-08T16:11:34.309Z",221413.08,NA,NA,NA,NA,NA,NA,NA,NA,NA,NA,NA,NA,NA,NA,NA,NA,NA,NA,NA,NA,NA,"Start Position","click @Start_Button",NA,NA,"P_Small_3.png","-200",NA,NA,NA,NA,NA,NA,NA,NA,NA,NA,NA,NA,NA,NA,NA,NA,NA
"Mask","canvas.Screen","11_3_1",NA,NA,NA,"timeout",199.98000000001,221395,221396.42,221413.08,221596.4,221598,"2020-07-08T16:11:34.511Z",221613.06,NA,NA,NA,NA,NA,NA,NA,NA,NA,NA,NA,NA,NA,NA,NA,NA,NA,NA,NA,NA,NA,NA,NA,NA,NA,"P_Small_3.png","-200",NA,NA,NA,NA,NA,NA,NA,NA,NA,NA,NA,NA,NA,NA,NA,NA,NA
"Practice","canvas.Screen","11_3_2",NA,NA,NA,"response",942.940000000002,221598,221596.4,221613.06,222556,222567,"2020-07-08T16:11:35.481Z",222596.3,NA,NA,NA,NA,NA,NA,NA,NA,NA,NA,NA,NA,NA,NA,NA,NA,NA,NA,NA,NA,NA,"Respond_Left","click @Response_Left",NA,NA,"P_Small_3.png","-200",NA,NA,NA,NA,NA,NA,NA,NA,NA,NA,NA,NA,NA,NA,NA,NA,NA
"Sequence","flow.Sequence","11_3",NA,NA,NA,"completion",2592.78,219935,219946.64,219963.22,222556,222568,"2020-07-08T16:11:35.481Z",222596.3,NA,NA,NA,NA,NA,NA,NA,NA,NA,NA,NA,NA,NA,NA,NA,NA,NA,NA,NA,NA,NA,NA,NA,NA,NA,"P_Small_3.png","-200",NA,NA,NA,NA,NA,NA,NA,NA,NA,NA,NA,NA,NA,NA,NA,NA,NA
"Start Button","canvas.Screen","11_4_0",NA,NA,NA,"response",1037.70000000001,222568,222579.7,222596.3,223634,223651,"2020-07-08T16:11:36.566Z",223679.5,NA,NA,NA,NA,NA,NA,NA,NA,NA,NA,NA,NA,NA,NA,NA,NA,NA,NA,NA,NA,NA,"Start Position","click @Start_Button",NA,NA,"Control_3 (Big).png","-200",NA,NA,NA,NA,NA,NA,NA,NA,NA,NA,NA,NA,NA,NA,NA,NA,NA
"Mask","canvas.Screen","11_4_1",NA,NA,NA,"timeout",199.940000000002,223652,223662.84,223679.5,223862.78,223864,"2020-07-08T16:11:36.778Z",223879.44,NA,NA,NA,NA,NA,NA,NA,NA,NA,NA,NA,NA,NA,NA,NA,NA,NA,NA,NA,NA,NA,NA,NA,NA,NA,"Control_3 (Big).png","-200",NA,NA,NA,NA,NA,NA,NA,NA,NA,NA,NA,NA,NA,NA,NA,NA,NA
"Practice","canvas.Screen","11_4_2",NA,NA,NA,"response",1490.56,223864,223862.78,223879.44,225370,225385,"2020-07-08T16:11:38.298Z",225412.6,NA,NA,NA,NA,NA,NA,NA,NA,NA,NA,NA,NA,NA,NA,NA,NA,NA,NA,NA,NA,NA,"Respond_Left","click @Response_Left",NA,NA,"Control_3 (Big).png","-200",NA,NA,NA,NA,NA,NA,NA,NA,NA,NA,NA,NA,NA,NA,NA,NA,NA
"Sequence","flow.Sequence","11_4",NA,NA,NA,"completion",2773.70000000001,222568,222579.7,222596.3,225370,225386,"2020-07-08T16:11:38.301Z",225412.6,NA,NA,NA,NA,NA,NA,NA,NA,NA,NA,NA,NA,NA,NA,NA,NA,NA,NA,NA,NA,NA,NA,NA,NA,NA,"Control_3 (Big).png","-200",NA,NA,NA,NA,NA,NA,NA,NA,NA,NA,NA,NA,NA,NA,NA,NA,NA
"Start Button","canvas.Screen","11_5_0",NA,NA,NA,"response",1096.39999999999,225387,225396,225412.6,226509,226520,"2020-07-08T16:11:39.434Z",226545.74,NA,NA,NA,NA,NA,NA,NA,NA,NA,NA,NA,NA,NA,NA,NA,NA,NA,NA,NA,NA,NA,"Start Position","click @Start_Button",NA,NA,"Control_3 (Small).png","-200",NA,NA,NA,NA,NA,NA,NA,NA,NA,NA,NA,NA,NA,NA,NA,NA,NA
"Mask","canvas.Screen","11_5_1",NA,NA,NA,"timeout",199.98000000001,226521,226529.08,226545.74,226729.06,226730,"2020-07-08T16:11:39.644Z",226745.72,NA,NA,NA,NA,NA,NA,NA,NA,NA,NA,NA,NA,NA,NA,NA,NA,NA,NA,NA,NA,NA,NA,NA,NA,NA,"Control_3 (Small).png","-200",NA,NA,NA,NA,NA,NA,NA,NA,NA,NA,NA,NA,NA,NA,NA,NA,NA
"Practice","canvas.Screen","11_5_2",NA,NA,NA,"response",1216.28,226730,226729.06,226745.72,227962,227973,"2020-07-08T16:11:40.886Z",227995.58,NA,NA,NA,NA,NA,NA,NA,NA,NA,NA,NA,NA,NA,NA,NA,NA,NA,NA,NA,NA,NA,"Respond_Left","click @Response_Left",NA,NA,"Control_3 (Small).png","-200",NA,NA,NA,NA,NA,NA,NA,NA,NA,NA,NA,NA,NA,NA,NA,NA,NA
"Sequence","flow.Sequence","11_5",NA,NA,NA,"completion",2549.39999999999,225386,225396,225412.6,227962,227973,"2020-07-08T16:11:40.887Z",227995.58,NA,NA,NA,NA,NA,NA,NA,NA,NA,NA,NA,NA,NA,NA,NA,NA,NA,NA,NA,NA,NA,NA,NA,NA,NA,"Control_3 (Small).png","-200",NA,NA,NA,NA,NA,NA,NA,NA,NA,NA,NA,NA,NA,NA,NA,NA,NA
"Start Button","canvas.Screen","11_6_0",NA,NA,NA,"response",1154.42000000001,227973,227978.92,227995.58,229150,229160,"2020-07-08T16:11:42.073Z",229178.74,NA,NA,NA,NA,NA,NA,NA,NA,NA,NA,NA,NA,NA,NA,NA,NA,NA,NA,NA,NA,NA,"Start Position","click @Start_Button",NA,NA,"P_Large_3.png","200",NA,NA,NA,NA,NA,NA,NA,NA,NA,NA,NA,NA,NA,NA,NA,NA,NA
"Mask","canvas.Screen","11_6_1",NA,NA,NA,"timeout",199.960000000021,229160,229162.08,229178.74,229362.04,229363,"2020-07-08T16:11:42.277Z",229378.7,NA,NA,NA,NA,NA,NA,NA,NA,NA,NA,NA,NA,NA,NA,NA,NA,NA,NA,NA,NA,NA,NA,NA,NA,NA,"P_Large_3.png","200",NA,NA,NA,NA,NA,NA,NA,NA,NA,NA,NA,NA,NA,NA,NA,NA,NA
"Practice","canvas.Screen","11_6_2",NA,NA,NA,"response",1271.29999999999,229363,229362.04,229378.7,230650,230672,"2020-07-08T16:11:43.585Z",230695.24,NA,NA,NA,NA,NA,NA,NA,NA,NA,NA,NA,NA,NA,NA,NA,NA,NA,NA,NA,NA,NA,"Respond_Right","click @Response_Right",NA,NA,"P_Large_3.png","200",NA,NA,NA,NA,NA,NA,NA,NA,NA,NA,NA,NA,NA,NA,NA,NA,NA
"Sequence","flow.Sequence","11_6",NA,NA,NA,"completion",2654.42000000001,227973,227978.92,227995.58,230650,230672,"2020-07-08T16:11:43.586Z",230695.24,NA,NA,NA,NA,NA,NA,NA,NA,NA,NA,NA,NA,NA,NA,NA,NA,NA,NA,NA,NA,NA,NA,NA,NA,NA,"P_Large_3.png","200",NA,NA,NA,NA,NA,NA,NA,NA,NA,NA,NA,NA,NA,NA,NA,NA,NA
"Start Button","canvas.Screen","11_7_0",NA,NA,NA,"response",1266.76000000001,230672,230678.58,230695.24,231962,231969,"2020-07-08T16:11:44.882Z",231995.06,NA,NA,NA,NA,NA,NA,NA,NA,NA,NA,NA,NA,NA,NA,NA,NA,NA,NA,NA,NA,NA,"Start Position","click @Start_Button",NA,NA,"Control_3.png","200",NA,NA,NA,NA,NA,NA,NA,NA,NA,NA,NA,NA,NA,NA,NA,NA,NA
"Mask","canvas.Screen","11_7_1",NA,NA,NA,"timeout",199.959999999992,231969,231978.38,231995.06,232178.36,232180,"2020-07-08T16:11:45.093Z",232195.02,NA,NA,NA,NA,NA,NA,NA,NA,NA,NA,NA,NA,NA,NA,NA,NA,NA,NA,NA,NA,NA,NA,NA,NA,NA,"Control_3.png","200",NA,NA,NA,NA,NA,NA,NA,NA,NA,NA,NA,NA,NA,NA,NA,NA,NA
"Practice","canvas.Screen","11_7_2",NA,NA,NA,"response",1751.98000000001,232180,232178.36,232195.02,233947,233953,"2020-07-08T16:11:46.867Z",233978.12,NA,NA,NA,NA,NA,NA,NA,NA,NA,NA,NA,NA,NA,NA,NA,NA,NA,NA,NA,NA,NA,"Respond_Right","click @Response_Right",NA,NA,"Control_3.png","200",NA,NA,NA,NA,NA,NA,NA,NA,NA,NA,NA,NA,NA,NA,NA,NA,NA
"Sequence","flow.Sequence","11_7",NA,NA,NA,"completion",3251.76000000001,230672,230678.58,230695.24,233947,233954,"2020-07-08T16:11:46.867Z",233978.12,NA,NA,NA,NA,NA,NA,NA,NA,NA,NA,NA,NA,NA,NA,NA,NA,NA,NA,NA,NA,NA,NA,NA,NA,NA,"Control_3.png","200",NA,NA,NA,NA,NA,NA,NA,NA,NA,NA,NA,NA,NA,NA,NA,NA,NA
"Start Button","canvas.Screen","11_8_0",NA,NA,NA,"response",1437.88,233954,233961.54,233978.12,235416,235428,"2020-07-08T16:11:48.342Z",235444.56,NA,NA,NA,NA,NA,NA,NA,NA,NA,NA,NA,NA,NA,NA,NA,NA,NA,NA,NA,NA,NA,"Start Position","click @Start_Button",NA,NA,"P_Large_3.png","-200",NA,NA,NA,NA,NA,NA,NA,NA,NA,NA,NA,NA,NA,NA,NA,NA,NA
"Mask","canvas.Screen","11_8_1",NA,NA,NA,"timeout",199.959999999992,235428,235427.88,235444.56,235627.86,235628,"2020-07-08T16:11:48.543Z",235644.52,NA,NA,NA,NA,NA,NA,NA,NA,NA,NA,NA,NA,NA,NA,NA,NA,NA,NA,NA,NA,NA,NA,NA,NA,NA,"P_Large_3.png","-200",NA,NA,NA,NA,NA,NA,NA,NA,NA,NA,NA,NA,NA,NA,NA,NA,NA
"Practice","canvas.Screen","11_8_2",NA,NA,NA,"response",912.48000000001,235628,235627.86,235644.52,236557,236578,"2020-07-08T16:11:49.492Z",236611.16,NA,NA,NA,NA,NA,NA,NA,NA,NA,NA,NA,NA,NA,NA,NA,NA,NA,NA,NA,NA,NA,"Respond_Left","click @Response_Left",NA,NA,"P_Large_3.png","-200",NA,NA,NA,NA,NA,NA,NA,NA,NA,NA,NA,NA,NA,NA,NA,NA,NA
"Sequence","flow.Sequence","11_8",NA,NA,NA,"completion",2578.88,233954,233961.54,233978.12,236557,236578,"2020-07-08T16:11:49.492Z",236611.16,NA,NA,NA,NA,NA,NA,NA,NA,NA,NA,NA,NA,NA,NA,NA,NA,NA,NA,NA,NA,NA,NA,NA,NA,NA,"P_Large_3.png","-200",NA,NA,NA,NA,NA,NA,NA,NA,NA,NA,NA,NA,NA,NA,NA,NA,NA
"Start Button","canvas.Screen","11_9_0",NA,NA,NA,"response",1491.84,236579,236594.5,236611.16,238103,238119,"2020-07-08T16:11:51.033Z",238144.36,NA,NA,NA,NA,NA,NA,NA,NA,NA,NA,NA,NA,NA,NA,NA,NA,NA,NA,NA,NA,NA,"Start Position","click @Start_Button",NA,NA,"Control_3 (Big).png","200",NA,NA,NA,NA,NA,NA,NA,NA,NA,NA,NA,NA,NA,NA,NA,NA,NA
"Mask","canvas.Screen","11_9_1",NA,NA,NA,"timeout",199.880000000005,238119,238127.7,238144.36,238327.56,238328,"2020-07-08T16:11:51.242Z",238344.24,NA,NA,NA,NA,NA,NA,NA,NA,NA,NA,NA,NA,NA,NA,NA,NA,NA,NA,NA,NA,NA,NA,NA,NA,NA,"Control_3 (Big).png","200",NA,NA,NA,NA,NA,NA,NA,NA,NA,NA,NA,NA,NA,NA,NA,NA,NA
"Practice","canvas.Screen","11_9_2",NA,NA,NA,"response",1633.76000000001,238328,238327.56,238344.24,239978,239993,"2020-07-08T16:11:52.906Z",240010.76,NA,NA,NA,NA,NA,NA,NA,NA,NA,NA,NA,NA,NA,NA,NA,NA,NA,NA,NA,NA,NA,"Respond_Right","click @Response_Right",NA,NA,"Control_3 (Big).png","200",NA,NA,NA,NA,NA,NA,NA,NA,NA,NA,NA,NA,NA,NA,NA,NA,NA
"Sequence","flow.Sequence","11_9",NA,NA,NA,"completion",3366.84,236579,236594.5,236611.16,239978,239993,"2020-07-08T16:11:52.907Z",240010.76,NA,NA,NA,NA,NA,NA,NA,NA,NA,NA,NA,NA,NA,NA,NA,NA,NA,NA,NA,NA,NA,NA,NA,NA,NA,"Control_3 (Big).png","200",NA,NA,NA,NA,NA,NA,NA,NA,NA,NA,NA,NA,NA,NA,NA,NA,NA
"Practice Trials","flow.Loop","11",NA,NA,NA,"completion",27696.96,212256,212264.38,212281.04,239978,239993,"2020-07-08T16:11:52.908Z",240010.76,NA,NA,NA,NA,NA,NA,NA,NA,NA,NA,NA,NA,NA,NA,NA,NA,NA,NA,NA,NA,NA,NA,NA,NA,NA,NA,NA,NA,NA,NA,NA,NA,NA,NA,NA,NA,NA,NA,NA,NA,NA,NA,NA,NA
"Experimental Trials instructions","html.Page","12",NA,NA,"","form submission",5210.23999999999,239994,239994.08,240010.76,245221,245221,"2020-07-08T16:11:58.136Z",245243.34,NA,NA,NA,NA,NA,NA,NA,NA,NA,NA,NA,NA,NA,NA,NA,NA,NA,NA,NA,NA,NA,NA,NA,NA,NA,NA,NA,NA,NA,NA,NA,NA,NA,NA,NA,NA,NA,NA,NA,NA,NA,NA,NA,NA
"Start Button","canvas.Screen","13_0_0",NA,NA,NA,"response",1812.66,245223,245226.68,245243.34,247056,247072,"2020-07-08T16:11:59.986Z",247093.1,NA,NA,NA,NA,NA,NA,NA,NA,NA,NA,NA,NA,NA,NA,NA,NA,NA,NA,NA,NA,NA,"Start Position","click @Start_Button",NA,NA,"Control_3.png","-200",NA,NA,NA,NA,NA,NA,NA,NA,NA,NA,NA,NA,NA,NA,NA,NA,NA
"Mask","canvas.Screen","13_0_1",NA,NA,NA,"timeout",199.959999999992,247073,247076.46,247093.1,247276.4,247277,"2020-07-08T16:12:00.190Z",247293.06,NA,NA,NA,NA,NA,NA,NA,NA,NA,NA,NA,NA,NA,NA,NA,NA,NA,NA,NA,NA,NA,NA,NA,NA,NA,"Control_3.png","-200",NA,NA,NA,NA,NA,NA,NA,NA,NA,NA,NA,NA,NA,NA,NA,NA,NA
"Pre_Manip Exp Trial","canvas.Screen","13_0_2",NA,NA,NA,"response",1293.94,247277,247276.4,247293.06,248587,248614,"2020-07-08T16:12:01.527Z",248642.9,NA,NA,NA,NA,NA,NA,NA,NA,NA,NA,NA,NA,NA,NA,NA,NA,NA,NA,NA,NA,NA,"Respond_Left","click @Response_Left",NA,NA,"Control_3.png","-200",NA,NA,NA,NA,NA,NA,NA,NA,NA,NA,NA,NA,NA,NA,NA,NA,NA
"Sequence","flow.Sequence","13_0",NA,NA,NA,"completion",3343.66,245223,245226.68,245243.34,248587,248614,"2020-07-08T16:12:01.527Z",248642.9,NA,NA,NA,NA,NA,NA,NA,NA,NA,NA,NA,NA,NA,NA,NA,NA,NA,NA,NA,NA,NA,NA,NA,NA,NA,"Control_3.png","-200",NA,NA,NA,NA,NA,NA,NA,NA,NA,NA,NA,NA,NA,NA,NA,NA,NA
"Start Button","canvas.Screen","13_1_0",NA,NA,NA,"response",1507.10000000001,248614,248626.28,248642.9,250150,250169,"2020-07-08T16:12:03.084Z",250192.76,NA,NA,NA,NA,NA,NA,NA,NA,NA,NA,NA,NA,NA,NA,NA,NA,NA,NA,NA,NA,NA,"Start Position","click @Start_Button",NA,NA,"P_Small_3.png","200",NA,NA,NA,NA,NA,NA,NA,NA,NA,NA,NA,NA,NA,NA,NA,NA,NA
"Mask","canvas.Screen","13_1_1",NA,NA,NA,"timeout",199.919999999984,250170,250176.16,250192.76,250376,250377,"2020-07-08T16:12:03.290Z",250392.68,NA,NA,NA,NA,NA,NA,NA,NA,NA,NA,NA,NA,NA,NA,NA,NA,NA,NA,NA,NA,NA,NA,NA,NA,NA,"P_Small_3.png","200",NA,NA,NA,NA,NA,NA,NA,NA,NA,NA,NA,NA,NA,NA,NA,NA,NA
"Pre_Manip Exp Trial","canvas.Screen","13_1_2",NA,NA,NA,"response",1132.32000000001,250377,250376,250392.68,251525,251534,"2020-07-08T16:12:04.447Z",251559.28,NA,NA,NA,NA,NA,NA,NA,NA,NA,NA,NA,NA,NA,NA,NA,NA,NA,NA,NA,NA,NA,"Respond_Right","click @Response_Right",NA,NA,"P_Small_3.png","200",NA,NA,NA,NA,NA,NA,NA,NA,NA,NA,NA,NA,NA,NA,NA,NA,NA
"Sequence","flow.Sequence","13_1",NA,NA,NA,"completion",2882.10000000001,248614,248626.28,248642.9,251525,251534,"2020-07-08T16:12:04.448Z",251559.28,NA,NA,NA,NA,NA,NA,NA,NA,NA,NA,NA,NA,NA,NA,NA,NA,NA,NA,NA,NA,NA,NA,NA,NA,NA,"P_Small_3.png","200",NA,NA,NA,NA,NA,NA,NA,NA,NA,NA,NA,NA,NA,NA,NA,NA,NA
"Start Button","canvas.Screen","13_2_0",NA,NA,NA,"response",1309.72,251534,251542.62,251559.28,252869,252891,"2020-07-08T16:12:05.804Z",252909.02,NA,NA,NA,NA,NA,NA,NA,NA,NA,NA,NA,NA,NA,NA,NA,NA,NA,NA,NA,NA,NA,"Start Position","click @Start_Button",NA,NA,"Control_3.png","200",NA,NA,NA,NA,NA,NA,NA,NA,NA,NA,NA,NA,NA,NA,NA,NA,NA
"Mask","canvas.Screen","13_2_1",NA,NA,NA,"timeout",199.98000000001,252891,252892.36,252909.02,253092.32,253093,"2020-07-08T16:12:06.006Z",253109,NA,NA,NA,NA,NA,NA,NA,NA,NA,NA,NA,NA,NA,NA,NA,NA,NA,NA,NA,NA,NA,NA,NA,NA,NA,"Control_3.png","200",NA,NA,NA,NA,NA,NA,NA,NA,NA,NA,NA,NA,NA,NA,NA,NA,NA
"Pre_Manip Exp Trial","canvas.Screen","13_2_2",NA,NA,NA,"response",1338,253094,253092.32,253109,254447,254454,"2020-07-08T16:12:07.368Z",254475.52,NA,NA,NA,NA,NA,NA,NA,NA,NA,NA,NA,NA,NA,NA,NA,NA,NA,NA,NA,NA,NA,"Respond_Right","click @Response_Right",NA,NA,"Control_3.png","200",NA,NA,NA,NA,NA,NA,NA,NA,NA,NA,NA,NA,NA,NA,NA,NA,NA
"Sequence","flow.Sequence","13_2",NA,NA,NA,"completion",2887.72,251534,251542.62,251559.28,254447,254454,"2020-07-08T16:12:07.368Z",254475.52,NA,NA,NA,NA,NA,NA,NA,NA,NA,NA,NA,NA,NA,NA,NA,NA,NA,NA,NA,NA,NA,NA,NA,NA,NA,"Control_3.png","200",NA,NA,NA,NA,NA,NA,NA,NA,NA,NA,NA,NA,NA,NA,NA,NA,NA
"Start Button","canvas.Screen","13_3_0",NA,NA,NA,"response",1252.48000000001,254454,254458.86,254475.52,255728,255737,"2020-07-08T16:12:08.651Z",255758.64,NA,NA,NA,NA,NA,NA,NA,NA,NA,NA,NA,NA,NA,NA,NA,NA,NA,NA,NA,NA,NA,"Start Position","click @Start_Button",NA,NA,"P_Large_3.png","200",NA,NA,NA,NA,NA,NA,NA,NA,NA,NA,NA,NA,NA,NA,NA,NA,NA
"Mask","canvas.Screen","13_3_1",NA,NA,NA,"timeout",199.979999999981,255737,255741.98,255758.64,255941.96,255942,"2020-07-08T16:12:08.857Z",255958.62,NA,NA,NA,NA,NA,NA,NA,NA,NA,NA,NA,NA,NA,NA,NA,NA,NA,NA,NA,NA,NA,NA,NA,NA,NA,"P_Large_3.png","200",NA,NA,NA,NA,NA,NA,NA,NA,NA,NA,NA,NA,NA,NA,NA,NA,NA
"Pre_Manip Exp Trial","canvas.Screen","13_3_2",NA,NA,NA,"response",1253.38,255943,255941.96,255958.62,257212,257227,"2020-07-08T16:12:10.141Z",257258.54,NA,NA,NA,NA,NA,NA,NA,NA,NA,NA,NA,NA,NA,NA,NA,NA,NA,NA,NA,NA,NA,"Respond_Right","click @Response_Right",NA,NA,"P_Large_3.png","200",NA,NA,NA,NA,NA,NA,NA,NA,NA,NA,NA,NA,NA,NA,NA,NA,NA
"Sequence","flow.Sequence","13_3",NA,NA,NA,"completion",2736.48000000001,254454,254458.86,254475.52,257212,257227,"2020-07-08T16:12:10.141Z",257258.54,NA,NA,NA,NA,NA,NA,NA,NA,NA,NA,NA,NA,NA,NA,NA,NA,NA,NA,NA,NA,NA,NA,NA,NA,NA,"P_Large_3.png","200",NA,NA,NA,NA,NA,NA,NA,NA,NA,NA,NA,NA,NA,NA,NA,NA,NA
"Start Button","canvas.Screen","13_4_0",NA,NA,NA,"response",1688.45999999999,257227,257241.88,257258.54,258947,258960,"2020-07-08T16:12:11.874Z",258991.6,NA,NA,NA,NA,NA,NA,NA,NA,NA,NA,NA,NA,NA,NA,NA,NA,NA,NA,NA,NA,NA,"Start Position","click @Start_Button",NA,NA,"P_Large_3.png","-200",NA,NA,NA,NA,NA,NA,NA,NA,NA,NA,NA,NA,NA,NA,NA,NA,NA
"Mask","canvas.Screen","13_4_1",NA,NA,NA,"timeout",199.940000000002,258960,258974.92,258991.6,259174.88,259176,"2020-07-08T16:12:12.089Z",259191.54,NA,NA,NA,NA,NA,NA,NA,NA,NA,NA,NA,NA,NA,NA,NA,NA,NA,NA,NA,NA,NA,NA,NA,NA,NA,"P_Large_3.png","-200",NA,NA,NA,NA,NA,NA,NA,NA,NA,NA,NA,NA,NA,NA,NA,NA,NA
"Pre_Manip Exp Trial","canvas.Screen","13_4_2",NA,NA,NA,"response",1192.45999999999,259176,259174.88,259191.54,260384,260391,"2020-07-08T16:12:13.304Z",260408.04,NA,NA,NA,NA,NA,NA,NA,NA,NA,NA,NA,NA,NA,NA,NA,NA,NA,NA,NA,NA,NA,"Respond_Left","click @Response_Left",NA,NA,"P_Large_3.png","-200",NA,NA,NA,NA,NA,NA,NA,NA,NA,NA,NA,NA,NA,NA,NA,NA,NA
"Sequence","flow.Sequence","13_4",NA,NA,NA,"completion",3125.45999999999,257227,257241.88,257258.54,260384,260391,"2020-07-08T16:12:13.305Z",260408.04,NA,NA,NA,NA,NA,NA,NA,NA,NA,NA,NA,NA,NA,NA,NA,NA,NA,NA,NA,NA,NA,NA,NA,NA,NA,"P_Large_3.png","-200",NA,NA,NA,NA,NA,NA,NA,NA,NA,NA,NA,NA,NA,NA,NA,NA,NA
"Start Button","canvas.Screen","13_5_0",NA,NA,NA,"response",1460.95999999999,260391,260391.38,260408.04,261869,261873,"2020-07-08T16:12:14.787Z",261891.18,NA,NA,NA,NA,NA,NA,NA,NA,NA,NA,NA,NA,NA,NA,NA,NA,NA,NA,NA,NA,NA,"Start Position","click @Start_Button",NA,NA,"Control_3 (Big).png","-200",NA,NA,NA,NA,NA,NA,NA,NA,NA,NA,NA,NA,NA,NA,NA,NA,NA
"Mask","canvas.Screen","13_5_1",NA,NA,NA,"timeout",199.98000000001,261873,261874.52,261891.18,262074.5,262075,"2020-07-08T16:12:14.989Z",262091.16,NA,NA,NA,NA,NA,NA,NA,NA,NA,NA,NA,NA,NA,NA,NA,NA,NA,NA,NA,NA,NA,NA,NA,NA,NA,"Control_3 (Big).png","-200",NA,NA,NA,NA,NA,NA,NA,NA,NA,NA,NA,NA,NA,NA,NA,NA,NA
"Pre_Manip Exp Trial","canvas.Screen","13_5_2",NA,NA,NA,"response",1230.84,262076,262074.5,262091.16,263322,263341,"2020-07-08T16:12:16.254Z",263374.36,NA,NA,NA,NA,NA,NA,NA,NA,NA,NA,NA,NA,NA,NA,NA,NA,NA,NA,NA,NA,NA,"Respond_Left","click @Response_Left",NA,NA,"Control_3 (Big).png","-200",NA,NA,NA,NA,NA,NA,NA,NA,NA,NA,NA,NA,NA,NA,NA,NA,NA
"Sequence","flow.Sequence","13_5",NA,NA,NA,"completion",2913.95999999999,260391,260391.38,260408.04,263322,263341,"2020-07-08T16:12:16.255Z",263374.36,NA,NA,NA,NA,NA,NA,NA,NA,NA,NA,NA,NA,NA,NA,NA,NA,NA,NA,NA,NA,NA,NA,NA,NA,NA,"Control_3 (Big).png","-200",NA,NA,NA,NA,NA,NA,NA,NA,NA,NA,NA,NA,NA,NA,NA,NA,NA
"Start Button","canvas.Screen","13_6_0",NA,NA,NA,"response",1353.64000000001,263342,263357.68,263374.36,264728,264750,"2020-07-08T16:12:17.663Z",264774.18,NA,NA,NA,NA,NA,NA,NA,NA,NA,NA,NA,NA,NA,NA,NA,NA,NA,NA,NA,NA,NA,"Start Position","click @Start_Button",NA,NA,"Control_3 (Big).png","-200",NA,NA,NA,NA,NA,NA,NA,NA,NA,NA,NA,NA,NA,NA,NA,NA,NA
"Mask","canvas.Screen","13_6_1",NA,NA,NA,"timeout",199.960000000021,264750,264757.52,264774.18,264957.48,264958,"2020-07-08T16:12:17.872Z",264974.14,NA,NA,NA,NA,NA,NA,NA,NA,NA,NA,NA,NA,NA,NA,NA,NA,NA,NA,NA,NA,NA,NA,NA,NA,NA,"Control_3 (Big).png","-200",NA,NA,NA,NA,NA,NA,NA,NA,NA,NA,NA,NA,NA,NA,NA,NA,NA
"Pre_Manip Exp Trial","canvas.Screen","13_6_2",NA,NA,NA,"response",831.859999999986,264958,264957.48,264974.14,265806,265819,"2020-07-08T16:12:18.732Z",265840.76,NA,NA,NA,NA,NA,NA,NA,NA,NA,NA,NA,NA,NA,NA,NA,NA,NA,NA,NA,NA,NA,"Respond_Left","click @Response_Left",NA,NA,"Control_3 (Big).png","-200",NA,NA,NA,NA,NA,NA,NA,NA,NA,NA,NA,NA,NA,NA,NA,NA,NA
"Sequence","flow.Sequence","13_6",NA,NA,NA,"completion",2431.64000000001,263341,263357.68,263374.36,265806,265819,"2020-07-08T16:12:18.733Z",265840.76,NA,NA,NA,NA,NA,NA,NA,NA,NA,NA,NA,NA,NA,NA,NA,NA,NA,NA,NA,NA,NA,NA,NA,NA,NA,"Control_3 (Big).png","-200",NA,NA,NA,NA,NA,NA,NA,NA,NA,NA,NA,NA,NA,NA,NA,NA,NA
"Start Button","canvas.Screen","13_7_0",NA,NA,NA,"response",1434.23999999999,265820,265824.1,265840.76,267275,267287,"2020-07-08T16:12:20.201Z",267307.16,NA,NA,NA,NA,NA,NA,NA,NA,NA,NA,NA,NA,NA,NA,NA,NA,NA,NA,NA,NA,NA,"Start Position","click @Start_Button",NA,NA,"Control_3 (Big).png","200",NA,NA,NA,NA,NA,NA,NA,NA,NA,NA,NA,NA,NA,NA,NA,NA,NA
"Mask","canvas.Screen","13_7_1",NA,NA,NA,"timeout",199.98000000004,267287,267290.66,267307.16,267490.46,267491,"2020-07-08T16:12:20.404Z",267507.14,NA,NA,NA,NA,NA,NA,NA,NA,NA,NA,NA,NA,NA,NA,NA,NA,NA,NA,NA,NA,NA,NA,NA,NA,NA,"Control_3 (Big).png","200",NA,NA,NA,NA,NA,NA,NA,NA,NA,NA,NA,NA,NA,NA,NA,NA,NA
"Pre_Manip Exp Trial","canvas.Screen","13_7_2",NA,NA,NA,"response",751.859999999986,267491,267490.46,267507.14,268259,268275,"2020-07-08T16:12:21.189Z",268306.98,NA,NA,NA,NA,NA,NA,NA,NA,NA,NA,NA,NA,NA,NA,NA,NA,NA,NA,NA,NA,NA,"Respond_Right","click @Response_Right",NA,NA,"Control_3 (Big).png","200",NA,NA,NA,NA,NA,NA,NA,NA,NA,NA,NA,NA,NA,NA,NA,NA,NA
"Sequence","flow.Sequence","13_7",NA,NA,NA,"completion",2418.23999999999,265819,265824.1,265840.76,268259,268275,"2020-07-08T16:12:21.189Z",268306.98,NA,NA,NA,NA,NA,NA,NA,NA,NA,NA,NA,NA,NA,NA,NA,NA,NA,NA,NA,NA,NA,NA,NA,NA,NA,"Control_3 (Big).png","200",NA,NA,NA,NA,NA,NA,NA,NA,NA,NA,NA,NA,NA,NA,NA,NA,NA
"Start Button","canvas.Screen","13_8_0",NA,NA,NA,"response",937.020000000019,268276,268290.32,268306.98,269244,269248,"2020-07-08T16:12:22.162Z",269273.48,NA,NA,NA,NA,NA,NA,NA,NA,NA,NA,NA,NA,NA,NA,NA,NA,NA,NA,NA,NA,NA,"Start Position","click @Start_Button",NA,NA,"P_Small_3.png","200",NA,NA,NA,NA,NA,NA,NA,NA,NA,NA,NA,NA,NA,NA,NA,NA,NA
"Mask","canvas.Screen","13_8_1",NA,NA,NA,"timeout",199.98000000004,269249,269256.82,269273.48,269456.8,269458,"2020-07-08T16:12:22.372Z",269473.46,NA,NA,NA,NA,NA,NA,NA,NA,NA,NA,NA,NA,NA,NA,NA,NA,NA,NA,NA,NA,NA,NA,NA,NA,NA,"P_Small_3.png","200",NA,NA,NA,NA,NA,NA,NA,NA,NA,NA,NA,NA,NA,NA,NA,NA,NA
"Pre_Manip Exp Trial","canvas.Screen","13_8_2",NA,NA,NA,"response",1098.53999999998,269458,269456.8,269473.46,270572,270591,"2020-07-08T16:12:23.504Z",270606.7,NA,NA,NA,NA,NA,NA,NA,NA,NA,NA,NA,NA,NA,NA,NA,NA,NA,NA,NA,NA,NA,"Respond_Right","click @Response_Right",NA,NA,"P_Small_3.png","200",NA,NA,NA,NA,NA,NA,NA,NA,NA,NA,NA,NA,NA,NA,NA,NA,NA
"Sequence","flow.Sequence","13_8",NA,NA,NA,"completion",2265.02000000002,268276,268290.32,268306.98,270572,270591,"2020-07-08T16:12:23.504Z",270606.7,NA,NA,NA,NA,NA,NA,NA,NA,NA,NA,NA,NA,NA,NA,NA,NA,NA,NA,NA,NA,NA,NA,NA,NA,NA,"P_Small_3.png","200",NA,NA,NA,NA,NA,NA,NA,NA,NA,NA,NA,NA,NA,NA,NA,NA,NA
"Start Button","canvas.Screen","13_9_0",NA,NA,NA,"response",1402.29999999999,270592,270590.04,270606.7,272009,272022,"2020-07-08T16:12:24.935Z",272039.82,NA,NA,NA,NA,NA,NA,NA,NA,NA,NA,NA,NA,NA,NA,NA,NA,NA,NA,NA,NA,NA,"Start Position","click @Start_Button",NA,NA,"Control_3 (Big).png","200",NA,NA,NA,NA,NA,NA,NA,NA,NA,NA,NA,NA,NA,NA,NA,NA,NA
"Mask","canvas.Screen","13_9_1",NA,NA,NA,"timeout",199.979999999981,272022,272023.24,272039.82,272223.14,272224,"2020-07-08T16:12:25.138Z",272239.8,NA,NA,NA,NA,NA,NA,NA,NA,NA,NA,NA,NA,NA,NA,NA,NA,NA,NA,NA,NA,NA,NA,NA,NA,NA,"Control_3 (Big).png","200",NA,NA,NA,NA,NA,NA,NA,NA,NA,NA,NA,NA,NA,NA,NA,NA,NA
"Pre_Manip Exp Trial","canvas.Screen","13_9_2",NA,NA,NA,"response",1082.20000000001,272225,272223.14,272239.8,273322,273326,"2020-07-08T16:12:26.240Z",273356.4,NA,NA,NA,NA,NA,NA,NA,NA,NA,NA,NA,NA,NA,NA,NA,NA,NA,NA,NA,NA,NA,"Respond_Right","click @Response_Right",NA,NA,"Control_3 (Big).png","200",NA,NA,NA,NA,NA,NA,NA,NA,NA,NA,NA,NA,NA,NA,NA,NA,NA
"Sequence","flow.Sequence","13_9",NA,NA,NA,"completion",2715.29999999999,270591,270590.04,270606.7,273322,273327,"2020-07-08T16:12:26.240Z",273356.4,NA,NA,NA,NA,NA,NA,NA,NA,NA,NA,NA,NA,NA,NA,NA,NA,NA,NA,NA,NA,NA,NA,NA,NA,NA,"Control_3 (Big).png","200",NA,NA,NA,NA,NA,NA,NA,NA,NA,NA,NA,NA,NA,NA,NA,NA,NA
"Start Button","canvas.Screen","13_10_0",NA,NA,NA,"response",1512.59999999998,273327,273339.8,273356.4,274869,274875,"2020-07-08T16:12:27.789Z",274906.3,NA,NA,NA,NA,NA,NA,NA,NA,NA,NA,NA,NA,NA,NA,NA,NA,NA,NA,NA,NA,NA,"Start Position","click @Start_Button",NA,NA,"Control_3.png","200",NA,NA,NA,NA,NA,NA,NA,NA,NA,NA,NA,NA,NA,NA,NA,NA,NA
"Mask","canvas.Screen","13_10_1",NA,NA,NA,"timeout",199.840000000026,274875,274889.62,274906.3,275089.48,275090,"2020-07-08T16:12:28.003Z",275106.14,NA,NA,NA,NA,NA,NA,NA,NA,NA,NA,NA,NA,NA,NA,NA,NA,NA,NA,NA,NA,NA,NA,NA,NA,NA,"Control_3.png","200",NA,NA,NA,NA,NA,NA,NA,NA,NA,NA,NA,NA,NA,NA,NA,NA,NA
"Pre_Manip Exp Trial","canvas.Screen","13_10_2",NA,NA,NA,"response",1074.85999999999,275090,275089.48,275106.14,276181,276203,"2020-07-08T16:12:29.117Z",276222.7,NA,NA,NA,NA,NA,NA,NA,NA,NA,NA,NA,NA,NA,NA,NA,NA,NA,NA,NA,NA,NA,"Respond_Right","click @Response_Right",NA,NA,"Control_3.png","200",NA,NA,NA,NA,NA,NA,NA,NA,NA,NA,NA,NA,NA,NA,NA,NA,NA
"Sequence","flow.Sequence","13_10",NA,NA,NA,"completion",2824.59999999998,273327,273339.8,273356.4,276181,276204,"2020-07-08T16:12:29.118Z",276222.7,NA,NA,NA,NA,NA,NA,NA,NA,NA,NA,NA,NA,NA,NA,NA,NA,NA,NA,NA,NA,NA,NA,NA,NA,NA,"Control_3.png","200",NA,NA,NA,NA,NA,NA,NA,NA,NA,NA,NA,NA,NA,NA,NA,NA,NA
"Start Button","canvas.Screen","13_11_0",NA,NA,NA,"response",1818.29999999999,276204,276206.12,276222.7,278041,278054,"2020-07-08T16:12:30.967Z",278072.5,NA,NA,NA,NA,NA,NA,NA,NA,NA,NA,NA,NA,NA,NA,NA,NA,NA,NA,NA,NA,NA,"Start Position","click @Start_Button",NA,NA,"Control_3.png","200",NA,NA,NA,NA,NA,NA,NA,NA,NA,NA,NA,NA,NA,NA,NA,NA,NA
"Mask","canvas.Screen","13_11_1",NA,NA,NA,"timeout",199.940000000002,278054,278055.84,278072.5,278255.76,278256,"2020-07-08T16:12:31.170Z",278272.44,NA,NA,NA,NA,NA,NA,NA,NA,NA,NA,NA,NA,NA,NA,NA,NA,NA,NA,NA,NA,NA,NA,NA,NA,NA,"Control_3.png","200",NA,NA,NA,NA,NA,NA,NA,NA,NA,NA,NA,NA,NA,NA,NA,NA,NA
"Pre_Manip Exp Trial","canvas.Screen","13_11_2",NA,NA,NA,"response",939.559999999998,278256,278255.76,278272.44,279212,279233,"2020-07-08T16:12:32.148Z",279255.58,NA,NA,NA,NA,NA,NA,NA,NA,NA,NA,NA,NA,NA,NA,NA,NA,NA,NA,NA,NA,NA,"Respond_Right","click @Response_Right",NA,NA,"Control_3.png","200",NA,NA,NA,NA,NA,NA,NA,NA,NA,NA,NA,NA,NA,NA,NA,NA,NA
"Sequence","flow.Sequence","13_11",NA,NA,NA,"completion",2989.29999999999,276204,276206.12,276222.7,279212,279234,"2020-07-08T16:12:32.148Z",279255.58,NA,NA,NA,NA,NA,NA,NA,NA,NA,NA,NA,NA,NA,NA,NA,NA,NA,NA,NA,NA,NA,NA,NA,NA,NA,"Control_3.png","200",NA,NA,NA,NA,NA,NA,NA,NA,NA,NA,NA,NA,NA,NA,NA,NA,NA
"Start Button","canvas.Screen","13_12_0",NA,NA,NA,"response",1050.41999999998,279234,279239.08,279255.58,280306,280318,"2020-07-08T16:12:33.232Z",280338.86,NA,NA,NA,NA,NA,NA,NA,NA,NA,NA,NA,NA,NA,NA,NA,NA,NA,NA,NA,NA,NA,"Start Position","click @Start_Button",NA,NA,"P_Small_3.png","-200",NA,NA,NA,NA,NA,NA,NA,NA,NA,NA,NA,NA,NA,NA,NA,NA,NA
"Mask","canvas.Screen","13_12_1",NA,NA,NA,"timeout",199.940000000002,280319,280322.4,280338.86,280522.14,280523,"2020-07-08T16:12:33.437Z",280538.8,NA,NA,NA,NA,NA,NA,NA,NA,NA,NA,NA,NA,NA,NA,NA,NA,NA,NA,NA,NA,NA,NA,NA,NA,NA,"P_Small_3.png","-200",NA,NA,NA,NA,NA,NA,NA,NA,NA,NA,NA,NA,NA,NA,NA,NA,NA
"Pre_Manip Exp Trial","canvas.Screen","13_12_2",NA,NA,NA,"response",1095.20000000001,280523,280522.14,280538.8,281634,281638,"2020-07-08T16:12:34.551Z",281655.3,NA,NA,NA,NA,NA,NA,NA,NA,NA,NA,NA,NA,NA,NA,NA,NA,NA,NA,NA,NA,NA,"Respond_Left","click @Response_Left",NA,NA,"P_Small_3.png","-200",NA,NA,NA,NA,NA,NA,NA,NA,NA,NA,NA,NA,NA,NA,NA,NA,NA
"Sequence","flow.Sequence","13_12",NA,NA,NA,"completion",2378.41999999998,279234,279239.08,279255.58,281634,281639,"2020-07-08T16:12:34.552Z",281655.3,NA,NA,NA,NA,NA,NA,NA,NA,NA,NA,NA,NA,NA,NA,NA,NA,NA,NA,NA,NA,NA,NA,NA,NA,NA,"P_Small_3.png","-200",NA,NA,NA,NA,NA,NA,NA,NA,NA,NA,NA,NA,NA,NA,NA,NA,NA
"Start Button","canvas.Screen","13_13_0",NA,NA,NA,"response",2291.70000000001,281639,281638.64,281655.3,283947,283962,"2020-07-08T16:12:36.875Z",283988.34,NA,NA,NA,NA,NA,NA,NA,NA,NA,NA,NA,NA,NA,NA,NA,NA,NA,NA,NA,NA,NA,"Start Position","click @Start_Button",NA,NA,"P_Large_3.png","-200",NA,NA,NA,NA,NA,NA,NA,NA,NA,NA,NA,NA,NA,NA,NA,NA,NA
"Mask","canvas.Screen","13_13_1",NA,NA,NA,"timeout",199.979999999981,283962,283971.78,283988.34,284171.66,284172,"2020-07-08T16:12:37.086Z",284188.32,NA,NA,NA,NA,NA,NA,NA,NA,NA,NA,NA,NA,NA,NA,NA,NA,NA,NA,NA,NA,NA,NA,NA,NA,NA,"P_Large_3.png","-200",NA,NA,NA,NA,NA,NA,NA,NA,NA,NA,NA,NA,NA,NA,NA,NA,NA
"Pre_Manip Exp Trial","canvas.Screen","13_13_2",NA,NA,NA,"response",1211.67999999999,284173,284171.66,284188.32,285400,285422,"2020-07-08T16:12:38.337Z",285454.78,NA,NA,NA,NA,NA,NA,NA,NA,NA,NA,NA,NA,NA,NA,NA,NA,NA,NA,NA,NA,NA,"Respond_Left","click @Response_Left",NA,NA,"P_Large_3.png","-200",NA,NA,NA,NA,NA,NA,NA,NA,NA,NA,NA,NA,NA,NA,NA,NA,NA
"Sequence","flow.Sequence","13_13",NA,NA,NA,"completion",3744.70000000001,281639,281638.64,281655.3,285400,285423,"2020-07-08T16:12:38.337Z",285454.78,NA,NA,NA,NA,NA,NA,NA,NA,NA,NA,NA,NA,NA,NA,NA,NA,NA,NA,NA,NA,NA,NA,NA,NA,NA,"P_Large_3.png","-200",NA,NA,NA,NA,NA,NA,NA,NA,NA,NA,NA,NA,NA,NA,NA,NA,NA
"Start Button","canvas.Screen","13_14_0",NA,NA,NA,"response",1242.21999999997,285423,285438.12,285454.78,286697,286713,"2020-07-08T16:12:39.626Z",286738.08,NA,NA,NA,NA,NA,NA,NA,NA,NA,NA,NA,NA,NA,NA,NA,NA,NA,NA,NA,NA,NA,"Start Position","click @Start_Button",NA,NA,"Control_3 (Small).png","200",NA,NA,NA,NA,NA,NA,NA,NA,NA,NA,NA,NA,NA,NA,NA,NA,NA
"Mask","canvas.Screen","13_14_1",NA,NA,NA,"timeout",199.899999999965,286713,286721.42,286738.08,286921.32,286922,"2020-07-08T16:12:39.836Z",286937.98,NA,NA,NA,NA,NA,NA,NA,NA,NA,NA,NA,NA,NA,NA,NA,NA,NA,NA,NA,NA,NA,NA,NA,NA,NA,"Control_3 (Small).png","200",NA,NA,NA,NA,NA,NA,NA,NA,NA,NA,NA,NA,NA,NA,NA,NA,NA
"Pre_Manip Exp Trial","canvas.Screen","13_14_2",NA,NA,NA,"response",915.020000000019,286922,286921.32,286937.98,287853,287870,"2020-07-08T16:12:40.784Z",287887.84,NA,NA,NA,NA,NA,NA,NA,NA,NA,NA,NA,NA,NA,NA,NA,NA,NA,NA,NA,NA,NA,"Respond_Right","click @Response_Right",NA,NA,"Control_3 (Small).png","200",NA,NA,NA,NA,NA,NA,NA,NA,NA,NA,NA,NA,NA,NA,NA,NA,NA
"Sequence","flow.Sequence","13_14",NA,NA,NA,"completion",2398.21999999997,285423,285438.12,285454.78,287853,287870,"2020-07-08T16:12:40.784Z",287887.84,NA,NA,NA,NA,NA,NA,NA,NA,NA,NA,NA,NA,NA,NA,NA,NA,NA,NA,NA,NA,NA,NA,NA,NA,NA,"Control_3 (Small).png","200",NA,NA,NA,NA,NA,NA,NA,NA,NA,NA,NA,NA,NA,NA,NA,NA,NA
"Start Button","canvas.Screen","13_15_0",NA,NA,NA,"response",1215.15999999997,287870,287871.18,287887.84,289103,289116,"2020-07-08T16:12:42.030Z",289137.78,NA,NA,NA,NA,NA,NA,NA,NA,NA,NA,NA,NA,NA,NA,NA,NA,NA,NA,NA,NA,NA,"Start Position","click @Start_Button",NA,NA,"P_Large_3.png","-200",NA,NA,NA,NA,NA,NA,NA,NA,NA,NA,NA,NA,NA,NA,NA,NA,NA
"Mask","canvas.Screen","13_15_1",NA,NA,NA,"timeout",199.899999999965,289117,289121.1,289137.78,289321.02,289322,"2020-07-08T16:12:42.236Z",289337.68,NA,NA,NA,NA,NA,NA,NA,NA,NA,NA,NA,NA,NA,NA,NA,NA,NA,NA,NA,NA,NA,NA,NA,NA,NA,"P_Large_3.png","-200",NA,NA,NA,NA,NA,NA,NA,NA,NA,NA,NA,NA,NA,NA,NA,NA,NA
"Pre_Manip Exp Trial","canvas.Screen","13_15_2",NA,NA,NA,"response",1140.32000000001,289322,289321.02,289337.68,290478,290503,"2020-07-08T16:12:43.417Z",290520.92,NA,NA,NA,NA,NA,NA,NA,NA,NA,NA,NA,NA,NA,NA,NA,NA,NA,NA,NA,NA,NA,"Respond_Left","click @Response_Left",NA,NA,"P_Large_3.png","-200",NA,NA,NA,NA,NA,NA,NA,NA,NA,NA,NA,NA,NA,NA,NA,NA,NA
"Sequence","flow.Sequence","13_15",NA,NA,NA,"completion",2590.15999999997,287870,287871.18,287887.84,290478,290504,"2020-07-08T16:12:43.417Z",290520.92,NA,NA,NA,NA,NA,NA,NA,NA,NA,NA,NA,NA,NA,NA,NA,NA,NA,NA,NA,NA,NA,NA,NA,NA,NA,"P_Large_3.png","-200",NA,NA,NA,NA,NA,NA,NA,NA,NA,NA,NA,NA,NA,NA,NA,NA,NA
"Start Button","canvas.Screen","13_16_0",NA,NA,NA,"response",1254.08000000002,290504,290504.26,290520.92,291775,291779,"2020-07-08T16:12:44.694Z",291804.06,NA,NA,NA,NA,NA,NA,NA,NA,NA,NA,NA,NA,NA,NA,NA,NA,NA,NA,NA,NA,NA,"Start Position","click @Start_Button",NA,NA,"P_Small_3.png","-200",NA,NA,NA,NA,NA,NA,NA,NA,NA,NA,NA,NA,NA,NA,NA,NA,NA
"Mask","canvas.Screen","13_16_1",NA,NA,NA,"timeout",199.960000000021,291779,291787.4,291804.06,291987.34,291988,"2020-07-08T16:12:44.901Z",292004.02,NA,NA,NA,NA,NA,NA,NA,NA,NA,NA,NA,NA,NA,NA,NA,NA,NA,NA,NA,NA,NA,NA,NA,NA,NA,"P_Small_3.png","-200",NA,NA,NA,NA,NA,NA,NA,NA,NA,NA,NA,NA,NA,NA,NA,NA,NA
"Pre_Manip Exp Trial","canvas.Screen","13_16_2",NA,NA,NA,"response",926.979999999981,291989,291987.34,292004.02,292931,292937,"2020-07-08T16:12:45.851Z",292970.56,NA,NA,NA,NA,NA,NA,NA,NA,NA,NA,NA,NA,NA,NA,NA,NA,NA,NA,NA,NA,NA,"Respond_Left","click @Response_Left",NA,NA,"P_Small_3.png","-200",NA,NA,NA,NA,NA,NA,NA,NA,NA,NA,NA,NA,NA,NA,NA,NA,NA
"Sequence","flow.Sequence","13_16",NA,NA,NA,"completion",2410.08000000002,290504,290504.26,290520.92,292931,292938,"2020-07-08T16:12:45.851Z",292970.56,NA,NA,NA,NA,NA,NA,NA,NA,NA,NA,NA,NA,NA,NA,NA,NA,NA,NA,NA,NA,NA,NA,NA,NA,NA,"P_Small_3.png","-200",NA,NA,NA,NA,NA,NA,NA,NA,NA,NA,NA,NA,NA,NA,NA,NA,NA
"Start Button","canvas.Screen","13_17_0",NA,NA,NA,"response",1054.44,292938,292953.9,292970.56,294025,294036,"2020-07-08T16:12:46.950Z",294053.74,NA,NA,NA,NA,NA,NA,NA,NA,NA,NA,NA,NA,NA,NA,NA,NA,NA,NA,NA,NA,NA,"Start Position","click @Start_Button",NA,NA,"Control_3 (Small).png","-200",NA,NA,NA,NA,NA,NA,NA,NA,NA,NA,NA,NA,NA,NA,NA,NA,NA
"Mask","canvas.Screen","13_17_1",NA,NA,NA,"timeout",199.960000000021,294036,294037.06,294053.74,294237.04,294238,"2020-07-08T16:12:47.151Z",294253.7,NA,NA,NA,NA,NA,NA,NA,NA,NA,NA,NA,NA,NA,NA,NA,NA,NA,NA,NA,NA,NA,NA,NA,NA,NA,"Control_3 (Small).png","-200",NA,NA,NA,NA,NA,NA,NA,NA,NA,NA,NA,NA,NA,NA,NA,NA,NA
"Pre_Manip Exp Trial","canvas.Screen","13_17_2",NA,NA,NA,"response",849.299999999988,294238,294237.04,294253.7,295103,295120,"2020-07-08T16:12:48.034Z",295136.84,NA,NA,NA,NA,NA,NA,NA,NA,NA,NA,NA,NA,NA,NA,NA,NA,NA,NA,NA,NA,NA,"Respond_Left","click @Response_Left",NA,NA,"Control_3 (Small).png","-200",NA,NA,NA,NA,NA,NA,NA,NA,NA,NA,NA,NA,NA,NA,NA,NA,NA
"Sequence","flow.Sequence","13_17",NA,NA,NA,"completion",2132.44,292938,292953.9,292970.56,295103,295120,"2020-07-08T16:12:48.034Z",295136.84,NA,NA,NA,NA,NA,NA,NA,NA,NA,NA,NA,NA,NA,NA,NA,NA,NA,NA,NA,NA,NA,NA,NA,NA,NA,"Control_3 (Small).png","-200",NA,NA,NA,NA,NA,NA,NA,NA,NA,NA,NA,NA,NA,NA,NA,NA,NA
"Start Button","canvas.Screen","13_18_0",NA,NA,NA,"response",2185.15999999997,295120,295120.18,295136.84,297322,297325,"2020-07-08T16:12:50.239Z",297353.34,NA,NA,NA,NA,NA,NA,NA,NA,NA,NA,NA,NA,NA,NA,NA,NA,NA,NA,NA,NA,NA,"Start Position","click @Start_Button",NA,NA,"Control_3.png","-200",NA,NA,NA,NA,NA,NA,NA,NA,NA,NA,NA,NA,NA,NA,NA,NA,NA
"Mask","canvas.Screen","13_18_1",NA,NA,NA,"timeout",199.940000000002,297325,297336.72,297353.34,297536.62,297537,"2020-07-08T16:12:50.451Z",297553.28,NA,NA,NA,NA,NA,NA,NA,NA,NA,NA,NA,NA,NA,NA,NA,NA,NA,NA,NA,NA,NA,NA,NA,NA,NA,"Control_3.png","-200",NA,NA,NA,NA,NA,NA,NA,NA,NA,NA,NA,NA,NA,NA,NA,NA,NA
"Pre_Manip Exp Trial","canvas.Screen","13_18_2",NA,NA,NA,"response",1158.71999999997,297537,297536.62,297553.28,298712,298727,"2020-07-08T16:12:51.641Z",298753.16,NA,NA,NA,NA,NA,NA,NA,NA,NA,NA,NA,NA,NA,NA,NA,NA,NA,NA,NA,NA,NA,"Respond_Left","click @Response_Left",NA,NA,"Control_3.png","-200",NA,NA,NA,NA,NA,NA,NA,NA,NA,NA,NA,NA,NA,NA,NA,NA,NA
"Sequence","flow.Sequence","13_18",NA,NA,NA,"completion",3575.15999999997,295120,295120.18,295136.84,298712,298727,"2020-07-08T16:12:51.641Z",298753.16,NA,NA,NA,NA,NA,NA,NA,NA,NA,NA,NA,NA,NA,NA,NA,NA,NA,NA,NA,NA,NA,NA,NA,NA,NA,"Control_3.png","-200",NA,NA,NA,NA,NA,NA,NA,NA,NA,NA,NA,NA,NA,NA,NA,NA,NA
"Start Button","canvas.Screen","13_19_0",NA,NA,NA,"response",1880.84000000003,298727,298736.58,298753.16,300634,300644,"2020-07-08T16:12:53.557Z",300669.62,NA,NA,NA,NA,NA,NA,NA,NA,NA,NA,NA,NA,NA,NA,NA,NA,NA,NA,NA,NA,NA,"Start Position","click @Start_Button",NA,NA,"Control_3 (Small).png","-200",NA,NA,NA,NA,NA,NA,NA,NA,NA,NA,NA,NA,NA,NA,NA,NA,NA
"Mask","canvas.Screen","13_19_1",NA,NA,NA,"timeout",199.919999999984,300644,300652.96,300669.62,300852.88,300853,"2020-07-08T16:12:53.767Z",300869.54,NA,NA,NA,NA,NA,NA,NA,NA,NA,NA,NA,NA,NA,NA,NA,NA,NA,NA,NA,NA,NA,NA,NA,NA,NA,"Control_3 (Small).png","-200",NA,NA,NA,NA,NA,NA,NA,NA,NA,NA,NA,NA,NA,NA,NA,NA,NA
"Pre_Manip Exp Trial","canvas.Screen","13_19_2",NA,NA,NA,"response",999.460000000021,300854,300852.88,300869.54,301869,301883,"2020-07-08T16:12:54.798Z",301902.68,NA,NA,NA,NA,NA,NA,NA,NA,NA,NA,NA,NA,NA,NA,NA,NA,NA,NA,NA,NA,NA,"Respond_Left","click @Response_Left",NA,NA,"Control_3 (Small).png","-200",NA,NA,NA,NA,NA,NA,NA,NA,NA,NA,NA,NA,NA,NA,NA,NA,NA
"Sequence","flow.Sequence","13_19",NA,NA,NA,"completion",3115.84000000003,298727,298736.58,298753.16,301869,301884,"2020-07-08T16:12:54.798Z",301902.68,NA,NA,NA,NA,NA,NA,NA,NA,NA,NA,NA,NA,NA,NA,NA,NA,NA,NA,NA,NA,NA,NA,NA,NA,NA,"Control_3 (Small).png","-200",NA,NA,NA,NA,NA,NA,NA,NA,NA,NA,NA,NA,NA,NA,NA,NA,NA
"Start Button","canvas.Screen","13_20_0",NA,NA,NA,"response",997.320000000007,301884,301886.02,301902.68,302900,302915,"2020-07-08T16:12:55.829Z",302935.94,NA,NA,NA,NA,NA,NA,NA,NA,NA,NA,NA,NA,NA,NA,NA,NA,NA,NA,NA,NA,NA,"Start Position","click @Start_Button",NA,NA,"Control_3.png","-200",NA,NA,NA,NA,NA,NA,NA,NA,NA,NA,NA,NA,NA,NA,NA,NA,NA
"Mask","canvas.Screen","13_20_1",NA,NA,NA,"timeout",199.979999999981,302915,302919.36,302935.94,303119.26,303120,"2020-07-08T16:12:56.034Z",303135.92,NA,NA,NA,NA,NA,NA,NA,NA,NA,NA,NA,NA,NA,NA,NA,NA,NA,NA,NA,NA,NA,NA,NA,NA,NA,"Control_3.png","-200",NA,NA,NA,NA,NA,NA,NA,NA,NA,NA,NA,NA,NA,NA,NA,NA,NA
"Pre_Manip Exp Trial","canvas.Screen","13_20_2",NA,NA,NA,"response",764.080000000016,303120,303119.26,303135.92,303900,303912,"2020-07-08T16:12:56.826Z",303935.76,NA,NA,NA,NA,NA,NA,NA,NA,NA,NA,NA,NA,NA,NA,NA,NA,NA,NA,NA,NA,NA,"Respond_Left","click @Response_Left",NA,NA,"Control_3.png","-200",NA,NA,NA,NA,NA,NA,NA,NA,NA,NA,NA,NA,NA,NA,NA,NA,NA
"Sequence","flow.Sequence","13_20",NA,NA,NA,"completion",1997.32000000001,301884,301886.02,301902.68,303900,303912,"2020-07-08T16:12:56.826Z",303935.76,NA,NA,NA,NA,NA,NA,NA,NA,NA,NA,NA,NA,NA,NA,NA,NA,NA,NA,NA,NA,NA,NA,NA,NA,NA,"Control_3.png","-200",NA,NA,NA,NA,NA,NA,NA,NA,NA,NA,NA,NA,NA,NA,NA,NA,NA
"Start Button","canvas.Screen","13_21_0",NA,NA,NA,"response",1026.23999999999,303912,303919.1,303935.76,304962,304966,"2020-07-08T16:12:57.880Z",304985.64,NA,NA,NA,NA,NA,NA,NA,NA,NA,NA,NA,NA,NA,NA,NA,NA,NA,NA,NA,NA,NA,"Start Position","click @Start_Button",NA,NA,"Control_3.png","-200",NA,NA,NA,NA,NA,NA,NA,NA,NA,NA,NA,NA,NA,NA,NA,NA,NA
"Mask","canvas.Screen","13_21_1",NA,NA,NA,"timeout",199.959999999963,304966,304969.04,304985.64,305168.94,305169,"2020-07-08T16:12:58.084Z",305185.6,NA,NA,NA,NA,NA,NA,NA,NA,NA,NA,NA,NA,NA,NA,NA,NA,NA,NA,NA,NA,NA,NA,NA,NA,NA,"Control_3.png","-200",NA,NA,NA,NA,NA,NA,NA,NA,NA,NA,NA,NA,NA,NA,NA,NA,NA
"Pre_Manip Exp Trial","canvas.Screen","13_21_2",NA,NA,NA,"response",1151.40000000002,305169,305168.94,305185.6,306337,306345,"2020-07-08T16:12:59.259Z",306368.84,NA,NA,NA,NA,NA,NA,NA,NA,NA,NA,NA,NA,NA,NA,NA,NA,NA,NA,NA,NA,NA,"Respond_Left","click @Response_Left",NA,NA,"Control_3.png","-200",NA,NA,NA,NA,NA,NA,NA,NA,NA,NA,NA,NA,NA,NA,NA,NA,NA
"Sequence","flow.Sequence","13_21",NA,NA,NA,"completion",2401.23999999999,303912,303919.1,303935.76,306337,306345,"2020-07-08T16:12:59.260Z",306368.84,NA,NA,NA,NA,NA,NA,NA,NA,NA,NA,NA,NA,NA,NA,NA,NA,NA,NA,NA,NA,NA,NA,NA,NA,NA,"Control_3.png","-200",NA,NA,NA,NA,NA,NA,NA,NA,NA,NA,NA,NA,NA,NA,NA,NA,NA
"Start Button","canvas.Screen","13_22_0",NA,NA,NA,"response",1437.15999999997,306345,306352.18,306368.84,307806,307820,"2020-07-08T16:13:00.734Z",307851.88,NA,NA,NA,NA,NA,NA,NA,NA,NA,NA,NA,NA,NA,NA,NA,NA,NA,NA,NA,NA,NA,"Start Position","click @Start_Button",NA,NA,"P_Large_3.png","-200",NA,NA,NA,NA,NA,NA,NA,NA,NA,NA,NA,NA,NA,NA,NA,NA,NA
"Mask","canvas.Screen","13_22_1",NA,NA,NA,"timeout",199.979999999981,307821,307835.22,307851.88,308035.2,308036,"2020-07-08T16:13:00.949Z",308051.86,NA,NA,NA,NA,NA,NA,NA,NA,NA,NA,NA,NA,NA,NA,NA,NA,NA,NA,NA,NA,NA,NA,NA,NA,NA,"P_Large_3.png","-200",NA,NA,NA,NA,NA,NA,NA,NA,NA,NA,NA,NA,NA,NA,NA,NA,NA
"Pre_Manip Exp Trial","canvas.Screen","13_22_2",NA,NA,NA,"response",676.140000000014,308036,308035.2,308051.86,308728,308735,"2020-07-08T16:13:01.649Z",308751.78,NA,NA,NA,NA,NA,NA,NA,NA,NA,NA,NA,NA,NA,NA,NA,NA,NA,NA,NA,NA,NA,"Respond_Left","click @Response_Left",NA,NA,"P_Large_3.png","-200",NA,NA,NA,NA,NA,NA,NA,NA,NA,NA,NA,NA,NA,NA,NA,NA,NA
"Sequence","flow.Sequence","13_22",NA,NA,NA,"completion",2359.15999999997,306345,306352.18,306368.84,308728,308736,"2020-07-08T16:13:01.649Z",308751.78,NA,NA,NA,NA,NA,NA,NA,NA,NA,NA,NA,NA,NA,NA,NA,NA,NA,NA,NA,NA,NA,NA,NA,NA,NA,"P_Large_3.png","-200",NA,NA,NA,NA,NA,NA,NA,NA,NA,NA,NA,NA,NA,NA,NA,NA,NA
"Start Button","canvas.Screen","13_23_0",NA,NA,NA,"response",1632.21999999997,308736,308735.1,308751.78,310384,310401,"2020-07-08T16:13:03.316Z",310434.98,NA,NA,NA,NA,NA,NA,NA,NA,NA,NA,NA,NA,NA,NA,NA,NA,NA,NA,NA,NA,NA,"Start Position","click @Start_Button",NA,NA,"Control_3 (Big).png","-200",NA,NA,NA,NA,NA,NA,NA,NA,NA,NA,NA,NA,NA,NA,NA,NA,NA
"Mask","canvas.Screen","13_23_1",NA,NA,NA,"timeout",199.960000000021,310401,310418.32,310434.98,310618.28,310619,"2020-07-08T16:13:03.533Z",310634.94,NA,NA,NA,NA,NA,NA,NA,NA,NA,NA,NA,NA,NA,NA,NA,NA,NA,NA,NA,NA,NA,NA,NA,NA,NA,"Control_3 (Big).png","-200",NA,NA,NA,NA,NA,NA,NA,NA,NA,NA,NA,NA,NA,NA,NA,NA,NA
"Pre_Manip Exp Trial","canvas.Screen","13_23_2",NA,NA,NA,"response",531.059999999998,310619,310618.28,310634.94,311166,311184,"2020-07-08T16:13:04.098Z",311201.54,NA,NA,NA,NA,NA,NA,NA,NA,NA,NA,NA,NA,NA,NA,NA,NA,NA,NA,NA,NA,NA,"Respond_Left","click @Response_Left",NA,NA,"Control_3 (Big).png","-200",NA,NA,NA,NA,NA,NA,NA,NA,NA,NA,NA,NA,NA,NA,NA,NA,NA
"Sequence","flow.Sequence","13_23",NA,NA,NA,"completion",2414.21999999997,308736,308735.1,308751.78,311166,311184,"2020-07-08T16:13:04.098Z",311201.54,NA,NA,NA,NA,NA,NA,NA,NA,NA,NA,NA,NA,NA,NA,NA,NA,NA,NA,NA,NA,NA,NA,NA,NA,NA,"Control_3 (Big).png","-200",NA,NA,NA,NA,NA,NA,NA,NA,NA,NA,NA,NA,NA,NA,NA,NA,NA
"Start Button","canvas.Screen","13_24_0",NA,NA,NA,"response",995.460000000021,311185,311184.88,311201.54,312197,312217,"2020-07-08T16:13:05.130Z",312234.8,NA,NA,NA,NA,NA,NA,NA,NA,NA,NA,NA,NA,NA,NA,NA,NA,NA,NA,NA,NA,NA,"Start Position","click @Start_Button",NA,NA,"Control_3.png","200",NA,NA,NA,NA,NA,NA,NA,NA,NA,NA,NA,NA,NA,NA,NA,NA,NA
"Mask","canvas.Screen","13_24_1",NA,NA,NA,"timeout",199.900000000023,312217,312218.14,312234.8,312418.02,312419,"2020-07-08T16:13:05.333Z",312434.7,NA,NA,NA,NA,NA,NA,NA,NA,NA,NA,NA,NA,NA,NA,NA,NA,NA,NA,NA,NA,NA,NA,NA,NA,NA,"Control_3.png","200",NA,NA,NA,NA,NA,NA,NA,NA,NA,NA,NA,NA,NA,NA,NA,NA,NA
"Pre_Manip Exp Trial","canvas.Screen","13_24_2",NA,NA,NA,"response",996.299999999988,312419,312418.02,312434.7,313431,313448,"2020-07-08T16:13:06.362Z",313467.84,NA,NA,NA,NA,NA,NA,NA,NA,NA,NA,NA,NA,NA,NA,NA,NA,NA,NA,NA,NA,NA,"Respond_Right","click @Response_Right",NA,NA,"Control_3.png","200",NA,NA,NA,NA,NA,NA,NA,NA,NA,NA,NA,NA,NA,NA,NA,NA,NA
"Sequence","flow.Sequence","13_24",NA,NA,NA,"completion",2229.46000000002,311184,311184.88,311201.54,313431,313449,"2020-07-08T16:13:06.362Z",313467.84,NA,NA,NA,NA,NA,NA,NA,NA,NA,NA,NA,NA,NA,NA,NA,NA,NA,NA,NA,NA,NA,NA,NA,NA,NA,"Control_3.png","200",NA,NA,NA,NA,NA,NA,NA,NA,NA,NA,NA,NA,NA,NA,NA,NA,NA
"Start Button","canvas.Screen","13_25_0",NA,NA,NA,"response",2166.15999999997,313449,313451.26,313467.84,315634,315638,"2020-07-08T16:13:08.552Z",315667.62,NA,NA,NA,NA,NA,NA,NA,NA,NA,NA,NA,NA,NA,NA,NA,NA,NA,NA,NA,NA,NA,"Start Position","click @Start_Button",NA,NA,"P_Small_3.png","-200",NA,NA,NA,NA,NA,NA,NA,NA,NA,NA,NA,NA,NA,NA,NA,NA,NA
"Mask","canvas.Screen","13_25_1",NA,NA,NA,"timeout",199.960000000021,315638,315651.02,315667.62,315850.92,315851,"2020-07-08T16:13:08.765Z",315867.58,NA,NA,NA,NA,NA,NA,NA,NA,NA,NA,NA,NA,NA,NA,NA,NA,NA,NA,NA,NA,NA,NA,NA,NA,NA,"P_Small_3.png","-200",NA,NA,NA,NA,NA,NA,NA,NA,NA,NA,NA,NA,NA,NA,NA,NA,NA
"Pre_Manip Exp Trial","canvas.Screen","13_25_2",NA,NA,NA,"response",860.419999999984,315852,315850.92,315867.58,316728,316752,"2020-07-08T16:13:09.666Z",316784.06,NA,NA,NA,NA,NA,NA,NA,NA,NA,NA,NA,NA,NA,NA,NA,NA,NA,NA,NA,NA,NA,"Respond_Left","click @Response_Left",NA,NA,"P_Small_3.png","-200",NA,NA,NA,NA,NA,NA,NA,NA,NA,NA,NA,NA,NA,NA,NA,NA,NA
"Sequence","flow.Sequence","13_25",NA,NA,NA,"completion",3260.15999999997,313449,313451.26,313467.84,316728,316752,"2020-07-08T16:13:09.666Z",316784.06,NA,NA,NA,NA,NA,NA,NA,NA,NA,NA,NA,NA,NA,NA,NA,NA,NA,NA,NA,NA,NA,NA,NA,NA,NA,"P_Small_3.png","-200",NA,NA,NA,NA,NA,NA,NA,NA,NA,NA,NA,NA,NA,NA,NA,NA,NA
"Start Button","canvas.Screen","13_26_0",NA,NA,NA,"response",1756.94,316752,316767.4,316784.06,318541,318552,"2020-07-08T16:13:11.465Z",318583.84,NA,NA,NA,NA,NA,NA,NA,NA,NA,NA,NA,NA,NA,NA,NA,NA,NA,NA,NA,NA,NA,"Start Position","click @Start_Button",NA,NA,"P_Large_3.png","200",NA,NA,NA,NA,NA,NA,NA,NA,NA,NA,NA,NA,NA,NA,NA,NA,NA
"Mask","canvas.Screen","13_26_1",NA,NA,NA,"timeout",199.979999999981,318552,318567.18,318583.84,318767.14,318768,"2020-07-08T16:13:11.682Z",318783.82,NA,NA,NA,NA,NA,NA,NA,NA,NA,NA,NA,NA,NA,NA,NA,NA,NA,NA,NA,NA,NA,NA,NA,NA,NA,"P_Large_3.png","200",NA,NA,NA,NA,NA,NA,NA,NA,NA,NA,NA,NA,NA,NA,NA,NA,NA
"Pre_Manip Exp Trial","canvas.Screen","13_26_2",NA,NA,NA,"response",1303.17999999999,318768,318767.14,318783.82,320087,320093,"2020-07-08T16:13:13.007Z",320117.02,NA,NA,NA,NA,NA,NA,NA,NA,NA,NA,NA,NA,NA,NA,NA,NA,NA,NA,NA,NA,NA,"Respond_Right","click @Response_Right",NA,NA,"P_Large_3.png","200",NA,NA,NA,NA,NA,NA,NA,NA,NA,NA,NA,NA,NA,NA,NA,NA,NA
"Sequence","flow.Sequence","13_26",NA,NA,NA,"completion",3302.94,316752,316767.4,316784.06,320087,320093,"2020-07-08T16:13:13.007Z",320117.02,NA,NA,NA,NA,NA,NA,NA,NA,NA,NA,NA,NA,NA,NA,NA,NA,NA,NA,NA,NA,NA,NA,NA,NA,NA,"P_Large_3.png","200",NA,NA,NA,NA,NA,NA,NA,NA,NA,NA,NA,NA,NA,NA,NA,NA,NA
"Start Button","canvas.Screen","13_27_0",NA,NA,NA,"response",2298.97999999998,320093,320100.36,320117.02,322416,322431,"2020-07-08T16:13:15.345Z",322449.98,NA,NA,NA,NA,NA,NA,NA,NA,NA,NA,NA,NA,NA,NA,NA,NA,NA,NA,NA,NA,NA,"Start Position","click @Start_Button",NA,NA,"Control_3 (Small).png","200",NA,NA,NA,NA,NA,NA,NA,NA,NA,NA,NA,NA,NA,NA,NA,NA,NA
"Mask","canvas.Screen","13_27_1",NA,NA,NA,"timeout",199.960000000021,322431,322433.46,322449.98,322633.28,322634,"2020-07-08T16:13:15.548Z",322649.94,NA,NA,NA,NA,NA,NA,NA,NA,NA,NA,NA,NA,NA,NA,NA,NA,NA,NA,NA,NA,NA,NA,NA,NA,NA,"Control_3 (Small).png","200",NA,NA,NA,NA,NA,NA,NA,NA,NA,NA,NA,NA,NA,NA,NA,NA,NA
"Pre_Manip Exp Trial","canvas.Screen","13_27_2",NA,NA,NA,"response",1641.06,322634,322633.28,322649.94,324291,324297,"2020-07-08T16:13:17.211Z",324316.56,NA,NA,NA,NA,NA,NA,NA,NA,NA,NA,NA,NA,NA,NA,NA,NA,NA,NA,NA,NA,NA,"Respond_Right","click @Response_Right",NA,NA,"Control_3 (Small).png","200",NA,NA,NA,NA,NA,NA,NA,NA,NA,NA,NA,NA,NA,NA,NA,NA,NA
"Sequence","flow.Sequence","13_27",NA,NA,NA,"completion",4173.97999999998,320093,320100.36,320117.02,324291,324297,"2020-07-08T16:13:17.211Z",324316.56,NA,NA,NA,NA,NA,NA,NA,NA,NA,NA,NA,NA,NA,NA,NA,NA,NA,NA,NA,NA,NA,NA,NA,NA,NA,"Control_3 (Small).png","200",NA,NA,NA,NA,NA,NA,NA,NA,NA,NA,NA,NA,NA,NA,NA,NA,NA
"Start Button","canvas.Screen","13_28_0",NA,NA,NA,"response",1255.44,324297,324299.94,324316.56,325572,325580,"2020-07-08T16:13:18.494Z",325599.64,NA,NA,NA,NA,NA,NA,NA,NA,NA,NA,NA,NA,NA,NA,NA,NA,NA,NA,NA,NA,NA,"Start Position","click @Start_Button",NA,NA,"Control_3 (Big).png","200",NA,NA,NA,NA,NA,NA,NA,NA,NA,NA,NA,NA,NA,NA,NA,NA,NA
"Mask","canvas.Screen","13_28_1",NA,NA,NA,"timeout",199.979999999981,325581,325582.98,325599.64,325782.96,325783,"2020-07-08T16:13:18.698Z",325799.62,NA,NA,NA,NA,NA,NA,NA,NA,NA,NA,NA,NA,NA,NA,NA,NA,NA,NA,NA,NA,NA,NA,NA,NA,NA,"Control_3 (Big).png","200",NA,NA,NA,NA,NA,NA,NA,NA,NA,NA,NA,NA,NA,NA,NA,NA,NA
"Pre_Manip Exp Trial","canvas.Screen","13_28_2",NA,NA,NA,"response",1428.38,325784,325782.96,325799.62,327228,327240,"2020-07-08T16:13:20.154Z",327266.04,NA,NA,NA,NA,NA,NA,NA,NA,NA,NA,NA,NA,NA,NA,NA,NA,NA,NA,NA,NA,NA,"Respond_Right","click @Response_Right",NA,NA,"Control_3 (Big).png","200",NA,NA,NA,NA,NA,NA,NA,NA,NA,NA,NA,NA,NA,NA,NA,NA,NA
"Sequence","flow.Sequence","13_28",NA,NA,NA,"completion",2911.44,324297,324299.94,324316.56,327228,327240,"2020-07-08T16:13:20.155Z",327266.04,NA,NA,NA,NA,NA,NA,NA,NA,NA,NA,NA,NA,NA,NA,NA,NA,NA,NA,NA,NA,NA,NA,NA,NA,NA,"Control_3 (Big).png","200",NA,NA,NA,NA,NA,NA,NA,NA,NA,NA,NA,NA,NA,NA,NA,NA,NA
"Start Button","canvas.Screen","13_29_0",NA,NA,NA,"response",1289.96000000002,327240,327249.48,327266.04,328556,328582,"2020-07-08T16:13:21.496Z",328599.3,NA,NA,NA,NA,NA,NA,NA,NA,NA,NA,NA,NA,NA,NA,NA,NA,NA,NA,NA,NA,NA,"Start Position","click @Start_Button",NA,NA,"Control_3 (Small).png","-200",NA,NA,NA,NA,NA,NA,NA,NA,NA,NA,NA,NA,NA,NA,NA,NA,NA
"Mask","canvas.Screen","13_29_1",NA,NA,NA,"timeout",199.940000000002,328582,328582.64,328599.3,328782.58,328783,"2020-07-08T16:13:21.697Z",328799.24,NA,NA,NA,NA,NA,NA,NA,NA,NA,NA,NA,NA,NA,NA,NA,NA,NA,NA,NA,NA,NA,NA,NA,NA,NA,"Control_3 (Small).png","-200",NA,NA,NA,NA,NA,NA,NA,NA,NA,NA,NA,NA,NA,NA,NA,NA,NA
"Pre_Manip Exp Trial","canvas.Screen","13_29_2",NA,NA,NA,"response",1725.76000000001,328784,328782.58,328799.24,330525,330537,"2020-07-08T16:13:23.451Z",330565.8,NA,NA,NA,NA,NA,NA,NA,NA,NA,NA,NA,NA,NA,NA,NA,NA,NA,NA,NA,NA,NA,"Respond_Left","click @Response_Left",NA,NA,"Control_3 (Small).png","-200",NA,NA,NA,NA,NA,NA,NA,NA,NA,NA,NA,NA,NA,NA,NA,NA,NA
"Sequence","flow.Sequence","13_29",NA,NA,NA,"completion",3258.96000000002,327240,327249.48,327266.04,330525,330537,"2020-07-08T16:13:23.451Z",330565.8,NA,NA,NA,NA,NA,NA,NA,NA,NA,NA,NA,NA,NA,NA,NA,NA,NA,NA,NA,NA,NA,NA,NA,NA,NA,"Control_3 (Small).png","-200",NA,NA,NA,NA,NA,NA,NA,NA,NA,NA,NA,NA,NA,NA,NA,NA,NA
"Start Button","canvas.Screen","13_30_0",NA,NA,NA,"response",1865.20000000001,330537,330549.12,330565.8,332431,332439,"2020-07-08T16:13:25.353Z",332465.48,NA,NA,NA,NA,NA,NA,NA,NA,NA,NA,NA,NA,NA,NA,NA,NA,NA,NA,NA,NA,NA,"Start Position","click @Start_Button",NA,NA,"Control_3.png","-200",NA,NA,NA,NA,NA,NA,NA,NA,NA,NA,NA,NA,NA,NA,NA,NA,NA
"Mask","canvas.Screen","13_30_1",NA,NA,NA,"timeout",199.920000000042,332439,332448.82,332465.48,332648.72,332650,"2020-07-08T16:13:25.563Z",332665.4,NA,NA,NA,NA,NA,NA,NA,NA,NA,NA,NA,NA,NA,NA,NA,NA,NA,NA,NA,NA,NA,NA,NA,NA,NA,"Control_3.png","-200",NA,NA,NA,NA,NA,NA,NA,NA,NA,NA,NA,NA,NA,NA,NA,NA,NA
"Pre_Manip Exp Trial","canvas.Screen","13_30_2",NA,NA,NA,"response",1062.59999999998,332650,332648.72,332665.4,333728,333752,"2020-07-08T16:13:26.667Z",333781.92,NA,NA,NA,NA,NA,NA,NA,NA,NA,NA,NA,NA,NA,NA,NA,NA,NA,NA,NA,NA,NA,"Respond_Left","click @Response_Left",NA,NA,"Control_3.png","-200",NA,NA,NA,NA,NA,NA,NA,NA,NA,NA,NA,NA,NA,NA,NA,NA,NA
"Sequence","flow.Sequence","13_30",NA,NA,NA,"completion",3162.20000000001,330537,330549.12,330565.8,333728,333752,"2020-07-08T16:13:26.667Z",333781.92,NA,NA,NA,NA,NA,NA,NA,NA,NA,NA,NA,NA,NA,NA,NA,NA,NA,NA,NA,NA,NA,NA,NA,NA,NA,"Control_3.png","-200",NA,NA,NA,NA,NA,NA,NA,NA,NA,NA,NA,NA,NA,NA,NA,NA,NA
"Start Button","canvas.Screen","13_31_0",NA,NA,NA,"response",1243.08000000002,333753,333765.36,333781.92,335025,335035,"2020-07-08T16:13:27.949Z",335065.14,NA,NA,NA,NA,NA,NA,NA,NA,NA,NA,NA,NA,NA,NA,NA,NA,NA,NA,NA,NA,NA,"Start Position","click @Start_Button",NA,NA,"P_Large_3.png","200",NA,NA,NA,NA,NA,NA,NA,NA,NA,NA,NA,NA,NA,NA,NA,NA,NA
"Mask","canvas.Screen","13_31_1",NA,NA,NA,"timeout",199.940000000002,335036,335048.46,335065.14,335248.42,335249,"2020-07-08T16:13:28.163Z",335265.08,NA,NA,NA,NA,NA,NA,NA,NA,NA,NA,NA,NA,NA,NA,NA,NA,NA,NA,NA,NA,NA,NA,NA,NA,NA,"P_Large_3.png","200",NA,NA,NA,NA,NA,NA,NA,NA,NA,NA,NA,NA,NA,NA,NA,NA,NA
"Pre_Manip Exp Trial","canvas.Screen","13_31_2",NA,NA,NA,"response",1289.91999999998,335250,335248.42,335265.08,336555,336577,"2020-07-08T16:13:29.491Z",336598.3,NA,NA,NA,NA,NA,NA,NA,NA,NA,NA,NA,NA,NA,NA,NA,NA,NA,NA,NA,NA,NA,"Respond_Right","click @Response_Right",NA,NA,"P_Large_3.png","200",NA,NA,NA,NA,NA,NA,NA,NA,NA,NA,NA,NA,NA,NA,NA,NA,NA
"Sequence","flow.Sequence","13_31",NA,NA,NA,"completion",2773.08000000002,333753,333765.36,333781.92,336555,336577,"2020-07-08T16:13:29.491Z",336598.3,NA,NA,NA,NA,NA,NA,NA,NA,NA,NA,NA,NA,NA,NA,NA,NA,NA,NA,NA,NA,NA,NA,NA,NA,NA,"P_Large_3.png","200",NA,NA,NA,NA,NA,NA,NA,NA,NA,NA,NA,NA,NA,NA,NA,NA,NA
"Start Button","canvas.Screen","13_32_0",NA,NA,NA,"response",1238.70000000001,336577,336581.64,336598.3,337837,337846,"2020-07-08T16:13:30.759Z",337864.84,NA,NA,NA,NA,NA,NA,NA,NA,NA,NA,NA,NA,NA,NA,NA,NA,NA,NA,NA,NA,NA,"Start Position","click @Start_Button",NA,NA,"Control_3 (Big).png","200",NA,NA,NA,NA,NA,NA,NA,NA,NA,NA,NA,NA,NA,NA,NA,NA,NA
"Mask","canvas.Screen","13_32_1",NA,NA,NA,"timeout",199.899999999965,337846,337848.18,337864.84,338048.06,338049,"2020-07-08T16:13:30.963Z",338064.74,NA,NA,NA,NA,NA,NA,NA,NA,NA,NA,NA,NA,NA,NA,NA,NA,NA,NA,NA,NA,NA,NA,NA,NA,NA,"Control_3 (Big).png","200",NA,NA,NA,NA,NA,NA,NA,NA,NA,NA,NA,NA,NA,NA,NA,NA,NA
"Pre_Manip Exp Trial","canvas.Screen","13_32_2",NA,NA,NA,"response",1007.26000000001,338049,338048.06,338064.74,339072,339085,"2020-07-08T16:13:31.998Z",339114.6,NA,NA,NA,NA,NA,NA,NA,NA,NA,NA,NA,NA,NA,NA,NA,NA,NA,NA,NA,NA,NA,"Respond_Right","click @Response_Right",NA,NA,"Control_3 (Big).png","200",NA,NA,NA,NA,NA,NA,NA,NA,NA,NA,NA,NA,NA,NA,NA,NA,NA
"Sequence","flow.Sequence","13_32",NA,NA,NA,"completion",2473.70000000001,336577,336581.64,336598.3,339072,339085,"2020-07-08T16:13:31.998Z",339114.6,NA,NA,NA,NA,NA,NA,NA,NA,NA,NA,NA,NA,NA,NA,NA,NA,NA,NA,NA,NA,NA,NA,NA,NA,NA,"Control_3 (Big).png","200",NA,NA,NA,NA,NA,NA,NA,NA,NA,NA,NA,NA,NA,NA,NA,NA,NA
"Start Button","canvas.Screen","13_33_0",NA,NA,NA,"response",1237.40000000002,339085,339098.06,339114.6,340352,340368,"2020-07-08T16:13:33.282Z",340397.88,NA,NA,NA,NA,NA,NA,NA,NA,NA,NA,NA,NA,NA,NA,NA,NA,NA,NA,NA,NA,NA,"Start Position","click @Start_Button",NA,NA,"Control_3 (Big).png","-200",NA,NA,NA,NA,NA,NA,NA,NA,NA,NA,NA,NA,NA,NA,NA,NA,NA
"Mask","canvas.Screen","13_33_1",NA,NA,NA,"timeout",199.820000000007,340368,340381.2,340397.88,340581.04,340582,"2020-07-08T16:13:33.495Z",340597.7,NA,NA,NA,NA,NA,NA,NA,NA,NA,NA,NA,NA,NA,NA,NA,NA,NA,NA,NA,NA,NA,NA,NA,NA,NA,"Control_3 (Big).png","-200",NA,NA,NA,NA,NA,NA,NA,NA,NA,NA,NA,NA,NA,NA,NA,NA,NA
"Pre_Manip Exp Trial","canvas.Screen","13_33_2",NA,NA,NA,"response",1083.29999999999,340582,340581.04,340597.7,341681,341696,"2020-07-08T16:13:34.609Z",341714.36,NA,NA,NA,NA,NA,NA,NA,NA,NA,NA,NA,NA,NA,NA,NA,NA,NA,NA,NA,NA,NA,"Respond_Left","click @Response_Left",NA,NA,"Control_3 (Big).png","-200",NA,NA,NA,NA,NA,NA,NA,NA,NA,NA,NA,NA,NA,NA,NA,NA,NA
"Sequence","flow.Sequence","13_33",NA,NA,NA,"completion",2566.40000000002,339085,339098.06,339114.6,341681,341696,"2020-07-08T16:13:34.609Z",341714.36,NA,NA,NA,NA,NA,NA,NA,NA,NA,NA,NA,NA,NA,NA,NA,NA,NA,NA,NA,NA,NA,NA,NA,NA,NA,"Control_3 (Big).png","-200",NA,NA,NA,NA,NA,NA,NA,NA,NA,NA,NA,NA,NA,NA,NA,NA,NA
"Start Button","canvas.Screen","13_34_0",NA,NA,NA,"response",1685.64000000001,341696,341697.68,341714.36,343400,343414,"2020-07-08T16:13:36.328Z",343447.32,NA,NA,NA,NA,NA,NA,NA,NA,NA,NA,NA,NA,NA,NA,NA,NA,NA,NA,NA,NA,NA,"Start Position","click @Start_Button",NA,NA,"P_Small_3.png","200",NA,NA,NA,NA,NA,NA,NA,NA,NA,NA,NA,NA,NA,NA,NA,NA,NA
"Mask","canvas.Screen","13_34_1",NA,NA,NA,"timeout",199.979999999981,343415,343430.66,343447.32,343630.64,343631,"2020-07-08T16:13:36.545Z",343647.3,NA,NA,NA,NA,NA,NA,NA,NA,NA,NA,NA,NA,NA,NA,NA,NA,NA,NA,NA,NA,NA,NA,NA,NA,NA,"P_Small_3.png","200",NA,NA,NA,NA,NA,NA,NA,NA,NA,NA,NA,NA,NA,NA,NA,NA,NA
"Pre_Manip Exp Trial","canvas.Screen","13_34_2",NA,NA,NA,"response",971.700000000012,343631,343630.64,343647.3,344619,344639,"2020-07-08T16:13:37.553Z",344663.94,NA,NA,NA,NA,NA,NA,NA,NA,NA,NA,NA,NA,NA,NA,NA,NA,NA,NA,NA,NA,NA,"Respond_Right","click @Response_Right",NA,NA,"P_Small_3.png","200",NA,NA,NA,NA,NA,NA,NA,NA,NA,NA,NA,NA,NA,NA,NA,NA,NA
"Sequence","flow.Sequence","13_34",NA,NA,NA,"completion",2904.64000000001,341696,341697.68,341714.36,344619,344639,"2020-07-08T16:13:37.553Z",344663.94,NA,NA,NA,NA,NA,NA,NA,NA,NA,NA,NA,NA,NA,NA,NA,NA,NA,NA,NA,NA,NA,NA,NA,NA,NA,"P_Small_3.png","200",NA,NA,NA,NA,NA,NA,NA,NA,NA,NA,NA,NA,NA,NA,NA,NA,NA
"Start Button","canvas.Screen","13_35_0",NA,NA,NA,"response",1236.06,344639,344647.28,344663.94,345900,345908,"2020-07-08T16:13:38.821Z",345930.4,NA,NA,NA,NA,NA,NA,NA,NA,NA,NA,NA,NA,NA,NA,NA,NA,NA,NA,NA,NA,NA,"Start Position","click @Start_Button",NA,NA,"P_Large_3.png","200",NA,NA,NA,NA,NA,NA,NA,NA,NA,NA,NA,NA,NA,NA,NA,NA,NA
"Mask","canvas.Screen","13_35_1",NA,NA,NA,"timeout",199.959999999963,345908,345913.78,345930.4,346113.7,346114,"2020-07-08T16:13:39.028Z",346130.36,NA,NA,NA,NA,NA,NA,NA,NA,NA,NA,NA,NA,NA,NA,NA,NA,NA,NA,NA,NA,NA,NA,NA,NA,NA,"P_Large_3.png","200",NA,NA,NA,NA,NA,NA,NA,NA,NA,NA,NA,NA,NA,NA,NA,NA,NA
"Pre_Manip Exp Trial","canvas.Screen","13_35_2",NA,NA,NA,"response",1269.64000000001,346114,346113.7,346130.36,347400,347412,"2020-07-08T16:13:40.326Z",347430.1,NA,NA,NA,NA,NA,NA,NA,NA,NA,NA,NA,NA,NA,NA,NA,NA,NA,NA,NA,NA,NA,"Respond_Right","click @Response_Right",NA,NA,"P_Large_3.png","200",NA,NA,NA,NA,NA,NA,NA,NA,NA,NA,NA,NA,NA,NA,NA,NA,NA
"Sequence","flow.Sequence","13_35",NA,NA,NA,"completion",2736.06,344639,344647.28,344663.94,347400,347413,"2020-07-08T16:13:40.327Z",347430.1,NA,NA,NA,NA,NA,NA,NA,NA,NA,NA,NA,NA,NA,NA,NA,NA,NA,NA,NA,NA,NA,NA,NA,NA,NA,"P_Large_3.png","200",NA,NA,NA,NA,NA,NA,NA,NA,NA,NA,NA,NA,NA,NA,NA,NA,NA
"Start Button","canvas.Screen","13_36_0",NA,NA,NA,"response",1891.90000000002,347413,347413.52,347430.1,349322,349337,"2020-07-08T16:13:42.251Z",349363.36,NA,NA,NA,NA,NA,NA,NA,NA,NA,NA,NA,NA,NA,NA,NA,NA,NA,NA,NA,NA,NA,"Start Position","click @Start_Button",NA,NA,"Control_3 (Small).png","-200",NA,NA,NA,NA,NA,NA,NA,NA,NA,NA,NA,NA,NA,NA,NA,NA,NA
"Mask","canvas.Screen","13_36_1",NA,NA,NA,"timeout",199.859999999986,349337,349346.7,349363.36,349546.58,349547,"2020-07-08T16:13:42.460Z",349563.22,NA,NA,NA,NA,NA,NA,NA,NA,NA,NA,NA,NA,NA,NA,NA,NA,NA,NA,NA,NA,NA,NA,NA,NA,NA,"Control_3 (Small).png","-200",NA,NA,NA,NA,NA,NA,NA,NA,NA,NA,NA,NA,NA,NA,NA,NA,NA
"Pre_Manip Exp Trial","canvas.Screen","13_36_2",NA,NA,NA,"response",1305.78000000003,349548,349546.58,349563.22,350869,350878,"2020-07-08T16:13:43.792Z",350896.38,NA,NA,NA,NA,NA,NA,NA,NA,NA,NA,NA,NA,NA,NA,NA,NA,NA,NA,NA,NA,NA,"Respond_Left","click @Response_Left",NA,NA,"Control_3 (Small).png","-200",NA,NA,NA,NA,NA,NA,NA,NA,NA,NA,NA,NA,NA,NA,NA,NA,NA
"Sequence","flow.Sequence","13_36",NA,NA,NA,"completion",3438.90000000002,347413,347413.52,347430.1,350869,350878,"2020-07-08T16:13:43.792Z",350896.38,NA,NA,NA,NA,NA,NA,NA,NA,NA,NA,NA,NA,NA,NA,NA,NA,NA,NA,NA,NA,NA,NA,NA,NA,NA,"Control_3 (Small).png","-200",NA,NA,NA,NA,NA,NA,NA,NA,NA,NA,NA,NA,NA,NA,NA,NA,NA
"Start Button","canvas.Screen","13_37_0",NA,NA,NA,"response",1503.62,350879,350879.78,350896.38,352400,352413,"2020-07-08T16:13:45.327Z",352429.48,NA,NA,NA,NA,NA,NA,NA,NA,NA,NA,NA,NA,NA,NA,NA,NA,NA,NA,NA,NA,NA,"Start Position","click @Start_Button",NA,NA,"Control_3 (Small).png","200",NA,NA,NA,NA,NA,NA,NA,NA,NA,NA,NA,NA,NA,NA,NA,NA,NA
"Mask","canvas.Screen","13_37_1",NA,NA,NA,"timeout",199.98000000004,352413,352412.82,352429.48,352612.8,352614,"2020-07-08T16:13:45.527Z",352629.46,NA,NA,NA,NA,NA,NA,NA,NA,NA,NA,NA,NA,NA,NA,NA,NA,NA,NA,NA,NA,NA,NA,NA,NA,NA,"Control_3 (Small).png","200",NA,NA,NA,NA,NA,NA,NA,NA,NA,NA,NA,NA,NA,NA,NA,NA,NA
"Pre_Manip Exp Trial","canvas.Screen","13_37_2",NA,NA,NA,"response",1379.53999999998,352614,352612.8,352629.46,354009,354014,"2020-07-08T16:13:46.927Z",354045.98,NA,NA,NA,NA,NA,NA,NA,NA,NA,NA,NA,NA,NA,NA,NA,NA,NA,NA,NA,NA,NA,"Respond_Right","click @Response_Right",NA,NA,"Control_3 (Small).png","200",NA,NA,NA,NA,NA,NA,NA,NA,NA,NA,NA,NA,NA,NA,NA,NA,NA
"Sequence","flow.Sequence","13_37",NA,NA,NA,"completion",3112.62,350879,350879.78,350896.38,354009,354014,"2020-07-08T16:13:46.928Z",354045.98,NA,NA,NA,NA,NA,NA,NA,NA,NA,NA,NA,NA,NA,NA,NA,NA,NA,NA,NA,NA,NA,NA,NA,NA,NA,"Control_3 (Small).png","200",NA,NA,NA,NA,NA,NA,NA,NA,NA,NA,NA,NA,NA,NA,NA,NA,NA
"Start Button","canvas.Screen","13_38_0",NA,NA,NA,"response",2228.02000000002,354014,354029.32,354045.98,356274,356285,"2020-07-08T16:13:49.199Z",356312.36,NA,NA,NA,NA,NA,NA,NA,NA,NA,NA,NA,NA,NA,NA,NA,NA,NA,NA,NA,NA,NA,"Start Position","click @Start_Button",NA,NA,"Control_3 (Small).png","-200",NA,NA,NA,NA,NA,NA,NA,NA,NA,NA,NA,NA,NA,NA,NA,NA,NA
"Mask","canvas.Screen","13_38_1",NA,NA,NA,"timeout",199.98000000004,356285,356295.74,356312.36,356495.68,356497,"2020-07-08T16:13:49.410Z",356512.34,NA,NA,NA,NA,NA,NA,NA,NA,NA,NA,NA,NA,NA,NA,NA,NA,NA,NA,NA,NA,NA,NA,NA,NA,NA,"Control_3 (Small).png","-200",NA,NA,NA,NA,NA,NA,NA,NA,NA,NA,NA,NA,NA,NA,NA,NA,NA
"Pre_Manip Exp Trial","canvas.Screen","13_38_2",NA,NA,NA,"response",1637.65999999997,356497,356495.68,356512.34,358150,358166,"2020-07-08T16:13:51.080Z",358195.5,NA,NA,NA,NA,NA,NA,NA,NA,NA,NA,NA,NA,NA,NA,NA,NA,NA,NA,NA,NA,NA,"Respond_Left","click @Response_Left",NA,NA,"Control_3 (Small).png","-200",NA,NA,NA,NA,NA,NA,NA,NA,NA,NA,NA,NA,NA,NA,NA,NA,NA
"Sequence","flow.Sequence","13_38",NA,NA,NA,"completion",4104.02000000002,354014,354029.32,354045.98,358150,358166,"2020-07-08T16:13:51.080Z",358195.5,NA,NA,NA,NA,NA,NA,NA,NA,NA,NA,NA,NA,NA,NA,NA,NA,NA,NA,NA,NA,NA,NA,NA,NA,NA,"Control_3 (Small).png","-200",NA,NA,NA,NA,NA,NA,NA,NA,NA,NA,NA,NA,NA,NA,NA,NA,NA
"Start Button","canvas.Screen","13_39_0",NA,NA,NA,"response",1579.5,358166,358178.84,358195.5,359775,359781,"2020-07-08T16:13:52.695Z",359811.9,NA,NA,NA,NA,NA,NA,NA,NA,NA,NA,NA,NA,NA,NA,NA,NA,NA,NA,NA,NA,NA,"Start Position","click @Start_Button",NA,NA,"P_Small_3.png","200",NA,NA,NA,NA,NA,NA,NA,NA,NA,NA,NA,NA,NA,NA,NA,NA,NA
"Mask","canvas.Screen","13_39_1",NA,NA,NA,"timeout",199.959999999963,359781,359795.3,359811.9,359995.2,359996,"2020-07-08T16:13:52.910Z",360011.86,NA,NA,NA,NA,NA,NA,NA,NA,NA,NA,NA,NA,NA,NA,NA,NA,NA,NA,NA,NA,NA,NA,NA,NA,NA,"P_Small_3.png","200",NA,NA,NA,NA,NA,NA,NA,NA,NA,NA,NA,NA,NA,NA,NA,NA,NA
"Pre_Manip Exp Trial","canvas.Screen","13_39_2",NA,NA,NA,"response",997.140000000014,359996,359995.2,360011.86,361009,361013,"2020-07-08T16:13:53.927Z",361045.06,NA,NA,NA,NA,NA,NA,NA,NA,NA,NA,NA,NA,NA,NA,NA,NA,NA,NA,NA,NA,NA,"Respond_Right","click @Response_Right",NA,NA,"P_Small_3.png","200",NA,NA,NA,NA,NA,NA,NA,NA,NA,NA,NA,NA,NA,NA,NA,NA,NA
"Sequence","flow.Sequence","13_39",NA,NA,NA,"completion",2813.5,358166,358178.84,358195.5,361009,361013,"2020-07-08T16:13:53.927Z",361045.06,NA,NA,NA,NA,NA,NA,NA,NA,NA,NA,NA,NA,NA,NA,NA,NA,NA,NA,NA,NA,NA,NA,NA,NA,NA,"P_Small_3.png","200",NA,NA,NA,NA,NA,NA,NA,NA,NA,NA,NA,NA,NA,NA,NA,NA,NA
"Start Button","canvas.Screen","13_40_0",NA,NA,NA,"response",1354.94,361013,361028.38,361045.06,362400,362422,"2020-07-08T16:13:55.335Z",362444.92,NA,NA,NA,NA,NA,NA,NA,NA,NA,NA,NA,NA,NA,NA,NA,NA,NA,NA,NA,NA,NA,"Start Position","click @Start_Button",NA,NA,"Control_3 (Small).png","200",NA,NA,NA,NA,NA,NA,NA,NA,NA,NA,NA,NA,NA,NA,NA,NA,NA
"Mask","canvas.Screen","13_40_1",NA,NA,NA,"timeout",199.960000000021,362423,362428.28,362444.92,362628.22,362629,"2020-07-08T16:13:55.543Z",362644.88,NA,NA,NA,NA,NA,NA,NA,NA,NA,NA,NA,NA,NA,NA,NA,NA,NA,NA,NA,NA,NA,NA,NA,NA,NA,"Control_3 (Small).png","200",NA,NA,NA,NA,NA,NA,NA,NA,NA,NA,NA,NA,NA,NA,NA,NA,NA
"Pre_Manip Exp Trial","canvas.Screen","13_40_2",NA,NA,NA,"response",1114.12,362629,362628.22,362644.88,363759,363772,"2020-07-08T16:13:56.685Z",363794.72,NA,NA,NA,NA,NA,NA,NA,NA,NA,NA,NA,NA,NA,NA,NA,NA,NA,NA,NA,NA,NA,"Respond_Right","click @Response_Right",NA,NA,"Control_3 (Small).png","200",NA,NA,NA,NA,NA,NA,NA,NA,NA,NA,NA,NA,NA,NA,NA,NA,NA
"Sequence","flow.Sequence","13_40",NA,NA,NA,"completion",2713.94,361013,361028.38,361045.06,363759,363772,"2020-07-08T16:13:56.685Z",363794.72,NA,NA,NA,NA,NA,NA,NA,NA,NA,NA,NA,NA,NA,NA,NA,NA,NA,NA,NA,NA,NA,NA,NA,NA,NA,"Control_3 (Small).png","200",NA,NA,NA,NA,NA,NA,NA,NA,NA,NA,NA,NA,NA,NA,NA,NA,NA
"Start Button","canvas.Screen","13_41_0",NA,NA,NA,"response",1620.28000000003,363772,363778.08,363794.72,365415,365422,"2020-07-08T16:13:58.337Z",365444.52,NA,NA,NA,NA,NA,NA,NA,NA,NA,NA,NA,NA,NA,NA,NA,NA,NA,NA,NA,NA,NA,"Start Position","click @Start_Button",NA,NA,"Control_3.png","200",NA,NA,NA,NA,NA,NA,NA,NA,NA,NA,NA,NA,NA,NA,NA,NA,NA
"Mask","canvas.Screen","13_41_1",NA,NA,NA,"timeout",199.940000000002,365423,365427.86,365444.52,365627.8,365628,"2020-07-08T16:13:58.542Z",365644.46,NA,NA,NA,NA,NA,NA,NA,NA,NA,NA,NA,NA,NA,NA,NA,NA,NA,NA,NA,NA,NA,NA,NA,NA,NA,"Control_3.png","200",NA,NA,NA,NA,NA,NA,NA,NA,NA,NA,NA,NA,NA,NA,NA,NA,NA
"Pre_Manip Exp Trial","canvas.Screen","13_41_2",NA,NA,NA,"response",1442.53999999998,365628,365627.8,365644.46,367087,367105,"2020-07-08T16:14:00.018Z",367127.62,NA,NA,NA,NA,NA,NA,NA,NA,NA,NA,NA,NA,NA,NA,NA,NA,NA,NA,NA,NA,NA,"Respond_Right","click @Response_Right",NA,NA,"Control_3.png","200",NA,NA,NA,NA,NA,NA,NA,NA,NA,NA,NA,NA,NA,NA,NA,NA,NA
"Sequence","flow.Sequence","13_41",NA,NA,NA,"completion",3292.28000000003,363772,363778.08,363794.72,367087,367105,"2020-07-08T16:14:00.018Z",367127.62,NA,NA,NA,NA,NA,NA,NA,NA,NA,NA,NA,NA,NA,NA,NA,NA,NA,NA,NA,NA,NA,NA,NA,NA,NA,"Control_3.png","200",NA,NA,NA,NA,NA,NA,NA,NA,NA,NA,NA,NA,NA,NA,NA,NA,NA
"Start Button","canvas.Screen","13_42_0",NA,NA,NA,"response",1381.38,367105,367110.96,367127.62,368509,368521,"2020-07-08T16:14:01.435Z",368544.2,NA,NA,NA,NA,NA,NA,NA,NA,NA,NA,NA,NA,NA,NA,NA,NA,NA,NA,NA,NA,NA,"Start Position","click @Start_Button",NA,NA,"P_Small_3.png","200",NA,NA,NA,NA,NA,NA,NA,NA,NA,NA,NA,NA,NA,NA,NA,NA,NA
"Mask","canvas.Screen","13_42_1",NA,NA,NA,"timeout",199.940000000002,368521,368527.54,368544.2,368727.48,368728,"2020-07-08T16:14:01.641Z",368744.14,NA,NA,NA,NA,NA,NA,NA,NA,NA,NA,NA,NA,NA,NA,NA,NA,NA,NA,NA,NA,NA,NA,NA,NA,NA,"P_Small_3.png","200",NA,NA,NA,NA,NA,NA,NA,NA,NA,NA,NA,NA,NA,NA,NA,NA,NA
"Pre_Manip Exp Trial","canvas.Screen","13_42_2",NA,NA,NA,"response",2233.85999999999,368728,368727.48,368744.14,370978,370985,"2020-07-08T16:14:03.899Z",371010.48,NA,NA,NA,NA,NA,NA,NA,NA,NA,NA,NA,NA,NA,NA,NA,NA,NA,NA,NA,NA,NA,"Respond_Right","click @Response_Right",NA,NA,"P_Small_3.png","200",NA,NA,NA,NA,NA,NA,NA,NA,NA,NA,NA,NA,NA,NA,NA,NA,NA
"Sequence","flow.Sequence","13_42",NA,NA,NA,"completion",3850.38,367105,367110.96,367127.62,370978,370986,"2020-07-08T16:14:03.899Z",371010.48,NA,NA,NA,NA,NA,NA,NA,NA,NA,NA,NA,NA,NA,NA,NA,NA,NA,NA,NA,NA,NA,NA,NA,NA,NA,"P_Small_3.png","200",NA,NA,NA,NA,NA,NA,NA,NA,NA,NA,NA,NA,NA,NA,NA,NA,NA
"Start Button","canvas.Screen","13_43_0",NA,NA,NA,"response",1983.52000000002,370986,370993.82,371010.48,372994,373006,"2020-07-08T16:14:05.920Z",373026.94,NA,NA,NA,NA,NA,NA,NA,NA,NA,NA,NA,NA,NA,NA,NA,NA,NA,NA,NA,NA,NA,"Start Position","click @Start_Button",NA,NA,"P_Large_3.png","200",NA,NA,NA,NA,NA,NA,NA,NA,NA,NA,NA,NA,NA,NA,NA,NA,NA
"Mask","canvas.Screen","13_43_1",NA,NA,NA,"timeout",199.880000000005,373006,373010.38,373026.94,373210.2,373211,"2020-07-08T16:14:06.124Z",373226.82,NA,NA,NA,NA,NA,NA,NA,NA,NA,NA,NA,NA,NA,NA,NA,NA,NA,NA,NA,NA,NA,NA,NA,NA,NA,"P_Large_3.png","200",NA,NA,NA,NA,NA,NA,NA,NA,NA,NA,NA,NA,NA,NA,NA,NA,NA
"Pre_Manip Exp Trial","canvas.Screen","13_43_2",NA,NA,NA,"response",984.179999999993,373211,373210.2,373226.82,374211,374231,"2020-07-08T16:14:07.145Z",374260.14,NA,NA,NA,NA,NA,NA,NA,NA,NA,NA,NA,NA,NA,NA,NA,NA,NA,NA,NA,NA,NA,"Respond_Right","click @Response_Right",NA,NA,"P_Large_3.png","200",NA,NA,NA,NA,NA,NA,NA,NA,NA,NA,NA,NA,NA,NA,NA,NA,NA
"Sequence","flow.Sequence","13_43",NA,NA,NA,"completion",3200.52000000002,370986,370993.82,371010.48,374211,374231,"2020-07-08T16:14:07.145Z",374260.14,NA,NA,NA,NA,NA,NA,NA,NA,NA,NA,NA,NA,NA,NA,NA,NA,NA,NA,NA,NA,NA,NA,NA,NA,NA,"P_Large_3.png","200",NA,NA,NA,NA,NA,NA,NA,NA,NA,NA,NA,NA,NA,NA,NA,NA,NA
"Start Button","canvas.Screen","13_44_0",NA,NA,NA,"response",2201.85999999999,374231,374243.46,374260.14,376462,376472,"2020-07-08T16:14:09.387Z",376493.16,NA,NA,NA,NA,NA,NA,NA,NA,NA,NA,NA,NA,NA,NA,NA,NA,NA,NA,NA,NA,NA,"Start Position","click @Start_Button",NA,NA,"P_Small_3.png","-200",NA,NA,NA,NA,NA,NA,NA,NA,NA,NA,NA,NA,NA,NA,NA,NA,NA
"Mask","canvas.Screen","13_44_1",NA,NA,NA,"timeout",199.920000000042,376472,376476.5,376493.16,376676.42,376677,"2020-07-08T16:14:09.591Z",376693.08,NA,NA,NA,NA,NA,NA,NA,NA,NA,NA,NA,NA,NA,NA,NA,NA,NA,NA,NA,NA,NA,NA,NA,NA,NA,"P_Small_3.png","-200",NA,NA,NA,NA,NA,NA,NA,NA,NA,NA,NA,NA,NA,NA,NA,NA,NA
"Pre_Manip Exp Trial","canvas.Screen","13_44_2",NA,NA,NA,"response",1065.91999999998,376677,376676.42,376693.08,377759,377771,"2020-07-08T16:14:10.684Z",377793.04,NA,NA,NA,NA,NA,NA,NA,NA,NA,NA,NA,NA,NA,NA,NA,NA,NA,NA,NA,NA,NA,"Respond_Left","click @Response_Left",NA,NA,"P_Small_3.png","-200",NA,NA,NA,NA,NA,NA,NA,NA,NA,NA,NA,NA,NA,NA,NA,NA,NA
"Sequence","flow.Sequence","13_44",NA,NA,NA,"completion",3498.85999999999,374231,374243.46,374260.14,377759,377771,"2020-07-08T16:14:10.684Z",377793.04,NA,NA,NA,NA,NA,NA,NA,NA,NA,NA,NA,NA,NA,NA,NA,NA,NA,NA,NA,NA,NA,NA,NA,NA,NA,"P_Small_3.png","-200",NA,NA,NA,NA,NA,NA,NA,NA,NA,NA,NA,NA,NA,NA,NA,NA,NA
"Start Button","canvas.Screen","13_45_0",NA,NA,NA,"response",1340.96000000002,377771,377776.38,377793.04,379134,379150,"2020-07-08T16:14:12.064Z",379176.08,NA,NA,NA,NA,NA,NA,NA,NA,NA,NA,NA,NA,NA,NA,NA,NA,NA,NA,NA,NA,NA,"Start Position","click @Start_Button",NA,NA,"Control_3 (Big).png","-200",NA,NA,NA,NA,NA,NA,NA,NA,NA,NA,NA,NA,NA,NA,NA,NA,NA
"Mask","canvas.Screen","13_45_1",NA,NA,NA,"timeout",199.979999999981,379150,379159.42,379176.08,379359.4,379360,"2020-07-08T16:14:12.274Z",379376.06,NA,NA,NA,NA,NA,NA,NA,NA,NA,NA,NA,NA,NA,NA,NA,NA,NA,NA,NA,NA,NA,NA,NA,NA,NA,"Control_3 (Big).png","-200",NA,NA,NA,NA,NA,NA,NA,NA,NA,NA,NA,NA,NA,NA,NA,NA,NA
"Pre_Manip Exp Trial","canvas.Screen","13_45_2",NA,NA,NA,"response",1085.94,379360,379359.4,379376.06,380462,380478,"2020-07-08T16:14:13.391Z",380509.22,NA,NA,NA,NA,NA,NA,NA,NA,NA,NA,NA,NA,NA,NA,NA,NA,NA,NA,NA,NA,NA,"Respond_Left","click @Response_Left",NA,NA,"Control_3 (Big).png","-200",NA,NA,NA,NA,NA,NA,NA,NA,NA,NA,NA,NA,NA,NA,NA,NA,NA
"Sequence","flow.Sequence","13_45",NA,NA,NA,"completion",2668.96000000002,377771,377776.38,377793.04,380462,380478,"2020-07-08T16:14:13.391Z",380509.22,NA,NA,NA,NA,NA,NA,NA,NA,NA,NA,NA,NA,NA,NA,NA,NA,NA,NA,NA,NA,NA,NA,NA,NA,NA,"Control_3 (Big).png","-200",NA,NA,NA,NA,NA,NA,NA,NA,NA,NA,NA,NA,NA,NA,NA,NA,NA
"Start Button","canvas.Screen","13_46_0",NA,NA,NA,"response",1452.78000000003,380479,380492.56,380509.22,381962,381968,"2020-07-08T16:14:14.882Z",381992.42,NA,NA,NA,NA,NA,NA,NA,NA,NA,NA,NA,NA,NA,NA,NA,NA,NA,NA,NA,NA,NA,"Start Position","click @Start_Button",NA,NA,"Control_3 (Small).png","200",NA,NA,NA,NA,NA,NA,NA,NA,NA,NA,NA,NA,NA,NA,NA,NA,NA
"Mask","canvas.Screen","13_46_1",NA,NA,NA,"timeout",199.940000000002,381968,381975.84,381992.42,382175.7,382176,"2020-07-08T16:14:15.090Z",382192.36,NA,NA,NA,NA,NA,NA,NA,NA,NA,NA,NA,NA,NA,NA,NA,NA,NA,NA,NA,NA,NA,NA,NA,NA,NA,"Control_3 (Small).png","200",NA,NA,NA,NA,NA,NA,NA,NA,NA,NA,NA,NA,NA,NA,NA,NA,NA
"Pre_Manip Exp Trial","canvas.Screen","13_46_2",NA,NA,NA,"response",1409.64000000001,382176,382175.7,382192.36,383602,383619,"2020-07-08T16:14:16.533Z",383642.18,NA,NA,NA,NA,NA,NA,NA,NA,NA,NA,NA,NA,NA,NA,NA,NA,NA,NA,NA,NA,NA,"Respond_Right","click @Response_Right",NA,NA,"Control_3 (Small).png","200",NA,NA,NA,NA,NA,NA,NA,NA,NA,NA,NA,NA,NA,NA,NA,NA,NA
"Sequence","flow.Sequence","13_46",NA,NA,NA,"completion",3092.78000000003,380479,380492.56,380509.22,383602,383620,"2020-07-08T16:14:16.533Z",383642.18,NA,NA,NA,NA,NA,NA,NA,NA,NA,NA,NA,NA,NA,NA,NA,NA,NA,NA,NA,NA,NA,NA,NA,NA,NA,"Control_3 (Small).png","200",NA,NA,NA,NA,NA,NA,NA,NA,NA,NA,NA,NA,NA,NA,NA,NA,NA
"Start Button","canvas.Screen","13_47_0",NA,NA,NA,"response",1273.82000000001,383620,383625.5,383642.18,384916,384933,"2020-07-08T16:14:17.847Z",384958.72,NA,NA,NA,NA,NA,NA,NA,NA,NA,NA,NA,NA,NA,NA,NA,NA,NA,NA,NA,NA,NA,"Start Position","click @Start_Button",NA,NA,"P_Large_3.png","-200",NA,NA,NA,NA,NA,NA,NA,NA,NA,NA,NA,NA,NA,NA,NA,NA,NA
"Mask","canvas.Screen","13_47_1",NA,NA,NA,"timeout",199.920000000042,384934,384942.06,384958.72,385141.96,385143,"2020-07-08T16:14:18.057Z",385158.64,NA,NA,NA,NA,NA,NA,NA,NA,NA,NA,NA,NA,NA,NA,NA,NA,NA,NA,NA,NA,NA,NA,NA,NA,NA,"P_Large_3.png","-200",NA,NA,NA,NA,NA,NA,NA,NA,NA,NA,NA,NA,NA,NA,NA,NA,NA
"Pre_Manip Exp Trial","canvas.Screen","13_47_2",NA,NA,NA,"response",4459.35999999999,385143,385141.96,385158.64,389618,389632,"2020-07-08T16:14:22.546Z",389658.1,NA,NA,NA,NA,NA,NA,NA,NA,NA,NA,NA,NA,NA,NA,NA,NA,NA,NA,NA,NA,NA,"Respond_Left","click @Response_Left",NA,NA,"P_Large_3.png","-200",NA,NA,NA,NA,NA,NA,NA,NA,NA,NA,NA,NA,NA,NA,NA,NA,NA
"Sequence","flow.Sequence","13_47",NA,NA,NA,"completion",5975.82000000001,383620,383625.5,383642.18,389618,389632,"2020-07-08T16:14:22.546Z",389658.1,NA,NA,NA,NA,NA,NA,NA,NA,NA,NA,NA,NA,NA,NA,NA,NA,NA,NA,NA,NA,NA,NA,NA,NA,NA,"P_Large_3.png","-200",NA,NA,NA,NA,NA,NA,NA,NA,NA,NA,NA,NA,NA,NA,NA,NA,NA
"Start Button","canvas.Screen","13_48_0",NA,NA,NA,"response",1694.90000000002,389632,389641.5,389658.1,391353,391366,"2020-07-08T16:14:24.279Z",391391.22,NA,NA,NA,NA,NA,NA,NA,NA,NA,NA,NA,NA,NA,NA,NA,NA,NA,NA,NA,NA,NA,"Start Position","click @Start_Button",NA,NA,"P_Small_3.png","-200",NA,NA,NA,NA,NA,NA,NA,NA,NA,NA,NA,NA,NA,NA,NA,NA,NA
