"sender","sender_type","sender_id","Participant_Consent","if-you-would-like-to-receive-a-general-summary-of-the-results-from-this-study-when-it-is-completed-please-provide-your-email-address-below:","","ended_on","duration","time_run","time_render","time_show","time_end","time_commit","timestamp","time_switch","please-record-the-makemodel-and-(diagonal)-screen-size-of-the-device-you-are-using-to-complete-the-experiment-(e.g.-macbook-pro-13.3-in):","how-are-you-controlling-the-cursor-on-your-device-1","how-are-you-controlling-the-cursor-on-your-device-2","how-are-you-controlling-the-cursor-on-your-device-3","what-is-your-age-(years)","if-yes-which-sports-do-you-play","Horizontal_Pos","Vertical_Pos","response","response_action"
"Consent Form","html.Page","0","1","","","form submission",11523.0589999471,1101.04499995941,1094.484,1111.306,12634.3649999471,12636.7099999916,"2020-07-06T20:14:19.032Z",12680.856,NA,NA,NA,NA,NA,NA,NA,NA,NA,NA
"Debrief No Consent","html.Page","1",NA,NA,NA,"skipped",NA,12648.5799999791,NA,NA,12634.3649999471,12649.0449999692,"2020-07-06T20:14:19.045Z",12680.856,NA,NA,NA,NA,NA,NA,NA,NA,NA,NA
"Demographics","html.Page","2",NA,NA,"","form submission",3957.77899998115,12649.4899999816,12614.005,12680.856,16638.6349999812,16639.0549999778,"2020-07-06T20:14:23.035Z",16648.361,"",FALSE,FALSE,FALSE,"","",NA,NA,NA,NA
"Fullscreen","html.Screen","3",NA,NA,NA,NA,1460.83399996817,16639.439999999,16631.918,16648.361,18109.1949999682,18110.5149999494,"2020-07-06T20:14:24.506Z",18165.422,NA,NA,NA,NA,NA,NA,NA,NA,NA,NA
"Instructions_1","html.Page","4",NA,NA,"","form submission",2176.86299996243,18112.6199999708,18099.129,18165.422,20342.2849999624,20343.5699999682,"2020-07-06T20:14:26.739Z",20366.02,NA,NA,NA,NA,NA,NA,NA,NA,NA,NA
"Instructions 1.5","html.Page","5",NA,NA,"","form submission",999.899999952893,20344.4399999571,20332.692,20366.02,21365.9199999529,21367.4899999751,"2020-07-06T20:14:27.763Z",21399.574,NA,NA,NA,NA,NA,NA,NA,NA,NA,NA
"Calibration","canvas.Screen","6_0_0",NA,NA,"Right","response",2007.01099998972,21369.6049999562,21349.728,21399.574,23406.5849999897,23413.4499999927,"2020-07-06T20:14:29.809Z",23450.068,NA,NA,NA,NA,NA,NA,"200","0","Center","click @Center"
"Mask","canvas.Screen","6_0_1",NA,NA,"Right","timeout",200.405000000002,23415.85999995,23416.889,23450.068,23633.665,23636.9849999901,"2020-07-06T20:14:30.033Z",23650.473,NA,NA,NA,NA,NA,NA,"200","0",NA,NA
"Sequence","flow.Sequence","6_0",NA,NA,"Right","completion",2234.091,21369.2999999621,21349.728,21399.574,23633.665,23638.8399999705,"2020-07-06T20:14:30.034Z",23650.473,NA,NA,NA,NA,NA,NA,"200","0",NA,NA
"Calibration","canvas.Screen","6_1_0",NA,NA,"High","response",2574.35699996282,23639.6499999682,23633.665,23650.473,26224.8299999628,26226.5249999473,"2020-07-06T20:14:32.622Z",26250.762,NA,NA,NA,NA,NA,NA,"0","-150","Center","click @Center"
"Mask","canvas.Screen","6_1_1",NA,NA,"High","timeout",200.124,26227.4699999834,26217.414,26250.762,26434.358,26436.5949999774,"2020-07-06T20:14:32.832Z",26450.886,NA,NA,NA,NA,NA,NA,"0","-150",NA,NA
"Sequence","flow.Sequence","6_1",NA,NA,"High","completion",2783.885,23639.4549999968,23633.665,23650.473,26434.358,26437.8299999516,"2020-07-06T20:14:32.833Z",26450.886,NA,NA,NA,NA,NA,NA,"0","-150",NA,NA
"Calibration","canvas.Screen","6_2_0",NA,NA,"Left","response",1637.32899999613,26438.4649999556,26434.358,26450.886,28088.2149999961,28093.3049999876,"2020-07-06T20:14:34.489Z",28118.03,NA,NA,NA,NA,NA,NA,"-200","0","Center","click @Center"
"Mask","canvas.Screen","6_2_1",NA,NA,"Left","timeout",233.269,28094.9649999966,28084.556,28118.03,28301.419,28303.7149999873,"2020-07-06T20:14:34.699Z",28351.299,NA,NA,NA,NA,NA,NA,"-200","0",NA,NA
"Sequence","flow.Sequence","6_2",NA,NA,"Left","completion",1850.533,26438.3049999597,26434.358,26450.886,28301.419,28304.7849999857,"2020-07-06T20:14:34.700Z",28351.299,NA,NA,NA,NA,NA,NA,"-200","0",NA,NA
"Calibration","canvas.Screen","6_3_0",NA,NA,"Center","response",1894.91599999194,28305.4649999831,28301.419,28351.299,30246.2149999919,30249.7549999971,"2020-07-06T20:14:36.645Z",30368.609,NA,NA,NA,NA,NA,NA,"0","0","Center","click @Center"
"Mask","canvas.Screen","6_3_1",NA,NA,"Center","timeout",199.906999999999,30251.5399999684,30251.53,30368.609,30551.862,30552.8150000027,"2020-07-06T20:14:36.948Z",30568.516,NA,NA,NA,NA,NA,NA,"0","0",NA,NA
"Sequence","flow.Sequence","6_3",NA,NA,"Center","completion",2200.563,28305.2649999736,28301.419,28351.299,30551.862,30553.2799999928,"2020-07-06T20:14:36.949Z",30568.516,NA,NA,NA,NA,NA,NA,"0","0",NA,NA
"Calibration","canvas.Screen","6_4_0",NA,NA,"Low","response",2281.42899996537,30553.4449999686,30551.862,30568.516,32849.9449999654,32855.3049999755,"2020-07-06T20:14:39.251Z",32969.255,NA,NA,NA,NA,NA,NA,"0","150","Center","click @Center"
"Mask","canvas.Screen","6_4_1",NA,NA,"Low","timeout",200.050999999999,32857.4499999522,32852.568,32969.255,33152.8,33155.4199999664,"2020-07-06T20:14:39.551Z",33169.306,NA,NA,NA,NA,NA,NA,"0","150",NA,NA
"Sequence","flow.Sequence","6_4",NA,NA,"Low","completion",2584.284,30553.3949999954,30551.862,30568.516,33152.8,33156.8599999882,"2020-07-06T20:14:39.552Z",33169.306,NA,NA,NA,NA,NA,NA,"0","150",NA,NA
"Screen Setup","flow.Loop","6",NA,NA,NA,"completion",11753.226,21368.9649999724,21349.728,21399.574,33152.8,33157.894999953,"2020-07-06T20:14:39.553Z",33169.306,NA,NA,NA,NA,NA,NA,NA,NA,NA,NA
"Instructions_2","html.Page","7",NA,NA,"","form submission",1626.74899998434,33158.4599999478,33152.8,33169.306,34796.0549999843,34797.2999999765,"2020-07-06T20:14:41.193Z",34802.934,NA,NA,NA,NA,NA,NA,NA,NA,NA,NA
"Instructions_3","html.Page","8",NA,NA,"","form submission",835.725999996888,34798.4399999841,34786.397,34802.934,35638.6599999969,35639.4549999968,"2020-07-06T20:14:42.035Z",35636.557,NA,NA,NA,NA,NA,NA,NA,NA,NA,NA
"Start Button","canvas.Screen","9_0_0",NA,NA,NA,"response",1618.65799995375,35640.5299999751,35620.052,35636.557,37255.2149999538,37258.7300000014,"2020-07-06T20:14:43.654Z",37270.266,NA,NA,NA,NA,NA,NA,NA,NA,"Start Position","click @Start_Button"
"Mask","canvas.Screen","9_0_1",NA,NA,NA,"timeout",200.024999999994,37259.5799999544,37253.712,37270.266,37453.671,37454.700000002,"2020-07-06T20:14:43.850Z",37470.291,NA,NA,NA,NA,NA,NA,NA,NA,NA,NA
"Comparison","canvas.Screen","9_0_2",NA,NA,NA,"response",1587.61899997407,37455.1249999786,37453.671,37470.291,39057.9099999741,39063.919999986,"2020-07-06T20:14:45.459Z",39070.739,NA,NA,NA,NA,NA,NA,NA,NA,"Respond_Right","click @Response_Right"
"Sequence","flow.Sequence","9_0",NA,NA,NA,"completion",3421.35299997407,35640.3999999748,35620.052,35636.557,39057.9099999741,39065.7349999528,"2020-07-06T20:14:45.461Z",39070.739,NA,NA,NA,NA,NA,NA,NA,NA,NA,NA
"Start Button","canvas.Screen","9_1_0",NA,NA,NA,"response",1134.01099997532,39066.4749999996,39053.98,39070.739,40204.7499999753,40205.9049999807,"2020-07-06T20:14:46.601Z",40220.958,NA,NA,NA,NA,NA,NA,NA,NA,"Start Position","click @Start_Button"
"Mask","canvas.Screen","9_1_1",NA,NA,NA,"timeout",200.093000000001,40206.2849999638,40204.313,40220.958,40404.495,40406.8599999882,"2020-07-06T20:14:46.802Z",40421.051,NA,NA,NA,NA,NA,NA,NA,NA,NA,NA
"Comparison","canvas.Screen","9_1_2",NA,NA,NA,"response",1501.24899997653,40407.8749999753,40404.495,40421.051,41922.2999999765,41927.3349999567,"2020-07-06T20:14:48.323Z",41938.128,NA,NA,NA,NA,NA,NA,NA,NA,"Respond_Right","click @Response_Right"
"Sequence","flow.Sequence","9_1",NA,NA,NA,"completion",2851.56099997653,39066.2899999879,39053.98,39070.739,41922.2999999765,41929.3999999645,"2020-07-06T20:14:48.325Z",41938.128,NA,NA,NA,NA,NA,NA,NA,NA,NA,NA
"Start Button","canvas.Screen","9_2_0",NA,NA,NA,"response",1184.12699999477,41930.2049999824,41921.514,41938.128,43122.2549999948,43126.7050000024,"2020-07-06T20:14:49.522Z",43138.408,NA,NA,NA,NA,NA,NA,NA,NA,"Start Position","click @Start_Button"
"Mask","canvas.Screen","9_2_1",NA,NA,NA,"timeout",200.034,43127.6499999803,43121.62,43138.408,43321.961,43325.1949999831,"2020-07-06T20:14:49.720Z",43338.442,NA,NA,NA,NA,NA,NA,NA,NA,NA,NA
"Comparison","canvas.Screen","9_2_2",NA,NA,NA,"response",1687.48299996535,43326.1899999925,43321.961,43338.442,45025.9249999654,45029.6349999844,"2020-07-06T20:14:51.425Z",45038.913,NA,NA,NA,NA,NA,NA,NA,NA,"Respond_Right","click @Response_Right"
"Sequence","flow.Sequence","9_2",NA,NA,NA,"completion",3087.79699996536,41929.9949999549,41921.514,41938.128,45025.9249999654,45031.5199999604,"2020-07-06T20:14:51.427Z",45038.913,NA,NA,NA,NA,NA,NA,NA,NA,NA,NA
"Start Button","canvas.Screen","9_3_0",NA,NA,NA,"response",2633.68699999078,45032.2249999736,45022.092,45038.913,47672.5999999908,47676.1949999491,"2020-07-06T20:14:54.071Z",47689.561,NA,NA,NA,NA,NA,NA,NA,NA,"Start Position","click @Start_Button"
"Mask","canvas.Screen","9_3_1",NA,NA,NA,"timeout",199.951000000001,47677.0599999581,47672.944,47689.561,47872.861,47873.8349999767,"2020-07-06T20:14:54.269Z",47889.512,NA,NA,NA,NA,NA,NA,NA,NA,NA,NA
"Comparison","canvas.Screen","9_3_2",NA,NA,NA,"response",1715.21299998286,47874.2649999913,47872.861,47889.512,49604.7249999829,49608.3199999994,"2020-07-06T20:14:56.003Z",49623.35,NA,NA,NA,NA,NA,NA,NA,NA,"Respond_Left","click @Response_Left"
"Sequence","flow.Sequence","9_3",NA,NA,NA,"completion",4565.81199998286,45032.0499999798,45022.092,45038.913,49604.7249999829,49609.9799999502,"2020-07-06T20:14:56.005Z",49623.35,NA,NA,NA,NA,NA,NA,NA,NA,NA,NA
"Start Button","canvas.Screen","9_4_0",NA,NA,NA,"response",1281.63499997193,49610.7599999523,49606.807,49623.35,50904.9849999719,50906.1849999707,"2020-07-06T20:14:57.301Z",50906.901,NA,NA,NA,NA,NA,NA,NA,NA,"Start Position","click @Start_Button"
"Mask","canvas.Screen","9_4_1",NA,NA,NA,"timeout",200.175999999999,50906.5549999941,50890.307,50906.901,51090.558,51094.4099999615,"2020-07-06T20:14:57.490Z",51107.077,NA,NA,NA,NA,NA,NA,NA,NA,NA,NA
"Comparison","canvas.Screen","9_4_2",NA,NA,NA,"response",1827.80299995705,51095.8649999811,51090.558,51107.077,52934.879999957,52938.2650000043,"2020-07-06T20:14:59.333Z",52957.527,NA,NA,NA,NA,NA,NA,NA,NA,"Respond_Left","click @Response_Left"
"Sequence","flow.Sequence","9_4",NA,NA,NA,"completion",3311.52999995705,49610.6049999944,49606.807,49623.35,52934.879999957,52940.260000003,"2020-07-06T20:14:59.335Z",52957.527,NA,NA,NA,NA,NA,NA,NA,NA,NA,NA
"Start Button","canvas.Screen","9_5_0",NA,NA,NA,"response",1407.80300000054,52941.8249999871,52940.901,52957.527,54365.3300000005,54368.2649999973,"2020-07-06T20:15:00.763Z",54374.607,NA,NA,NA,NA,NA,NA,NA,NA,"Start Position","click @Start_Button"
"Mask","canvas.Screen","9_5_1",NA,NA,NA,"timeout",199.977999999996,54369.1899999976,54357.993,54374.607,54558.065,54561.8949999916,"2020-07-06T20:15:00.957Z",54574.585,NA,NA,NA,NA,NA,NA,NA,NA,NA,NA
"Comparison","canvas.Screen","9_5_2",NA,NA,NA,"response",1434.87999995189,54562.8649999853,54558.065,54574.585,56009.4649999519,56014.1849999782,"2020-07-06T20:15:02.409Z",56024.998,NA,NA,NA,NA,NA,NA,NA,NA,"Respond_Right","click @Response_Right"
"Sequence","flow.Sequence","9_5",NA,NA,NA,"completion",3051.93799995189,52940.9649999579,52940.901,52957.527,56009.4649999519,56016.084999952,"2020-07-06T20:15:02.411Z",56024.998,NA,NA,NA,NA,NA,NA,NA,NA,NA,NA
"Start Button","canvas.Screen","9_6_0",NA,NA,NA,"response",2253.68199998853,56016.8149999809,56008.383,56024.998,58278.6799999885,58281.6499999608,"2020-07-06T20:15:04.677Z",58292.249,NA,NA,NA,NA,NA,NA,NA,NA,"Start Position","click @Start_Button"
"Mask","canvas.Screen","9_6_1",NA,NA,NA,"timeout",200.009999999995,58282.6049999567,58275.45,58292.249,58475.652,58476.8349999795,"2020-07-06T20:15:04.872Z",58492.259,NA,NA,NA,NA,NA,NA,NA,NA,NA,NA
"Comparison","canvas.Screen","9_6_2",NA,NA,NA,"response",1376.70599997238,58477.0449999487,58475.652,58492.259,59868.9649999724,59873.4949999489,"2020-07-06T20:15:06.269Z",59892.599,NA,NA,NA,NA,NA,NA,NA,NA,"Respond_Left","click @Response_Left"
"Sequence","flow.Sequence","9_6",NA,NA,NA,"completion",3843.96699997238,56016.6399999871,56008.383,56024.998,59868.9649999724,59875.3949999809,"2020-07-06T20:15:06.271Z",59892.599,NA,NA,NA,NA,NA,NA,NA,NA,NA,NA
"Start Button","canvas.Screen","9_7_0",NA,NA,NA,"response",1379.99099994956,59876.7149999621,59875.834,59892.599,61272.5899999496,61275.7699999493,"2020-07-06T20:15:07.671Z",61293.194,NA,NA,NA,NA,NA,NA,NA,NA,"Start Position","click @Start_Button"
"Mask","canvas.Screen","9_7_1",NA,NA,NA,"timeout",199.784999999996,61277.214999951,61276.304,61293.194,61476.443,61478.8549999939,"2020-07-06T20:15:07.874Z",61492.979,NA,NA,NA,NA,NA,NA,NA,NA,NA,NA
"Comparison","canvas.Screen","9_7_2",NA,NA,NA,"response",1669.06099996651,61479.7799999942,61476.443,61492.979,63162.0399999665,63166.1549999844,"2020-07-06T20:15:09.561Z",63176.792,NA,NA,NA,NA,NA,NA,NA,NA,"Respond_Left","click @Response_Left"
"Sequence","flow.Sequence","9_7",NA,NA,NA,"completion",3269.44099996651,59876.3699999545,59875.834,59892.599,63162.0399999665,63168.1849999586,"2020-07-06T20:15:09.563Z",63176.792,NA,NA,NA,NA,NA,NA,NA,NA,NA,NA
"Start Button","canvas.Screen","9_8_0",NA,NA,NA,"response",1278.2529999515,63168.9499999629,63160.015,63176.792,64455.0449999515,64458.0599999754,"2020-07-06T20:15:10.853Z",64477.066,NA,NA,NA,NA,NA,NA,NA,NA,"Start Position","click @Start_Button"
"Mask","canvas.Screen","9_8_1",NA,NA,NA,"timeout",216.741000000002,64458.964999998,64443.786,64477.066,64660.65,64665.6849999563,"2020-07-06T20:15:11.061Z",64693.807,NA,NA,NA,NA,NA,NA,NA,NA,NA,NA
"Comparison","canvas.Screen","9_8_2",NA,NA,NA,"response",1593.51799998296,64666.6199999745,64660.65,64693.807,66287.324999983,66290.5249999603,"2020-07-06T20:15:12.686Z",66310.889,NA,NA,NA,NA,NA,NA,NA,NA,"Respond_Right","click @Response_Right"
"Sequence","flow.Sequence","9_8",NA,NA,NA,"completion",3110.53299998296,63168.7649999512,63160.015,63176.792,66287.324999983,66292.369999981,"2020-07-06T20:15:12.688Z",66310.889,NA,NA,NA,NA,NA,NA,NA,NA,NA,NA
"Start Button","canvas.Screen","9_9_0",NA,NA,NA,"response",1292.28599999656,66293.1949999765,66294.237,66310.889,67603.1749999966,67606.4299999853,"2020-07-06T20:15:14.002Z",67627.858,NA,NA,NA,NA,NA,NA,NA,NA,"Start Position","click @Start_Button"
"Mask","canvas.Screen","9_9_1",NA,NA,NA,"timeout",216.73000000001,67607.3499999475,67594.487,67627.858,67811.422,67813.4499999578,"2020-07-06T20:15:14.209Z",67844.588,NA,NA,NA,NA,NA,NA,NA,NA,NA,NA
"Comparison","canvas.Screen","9_9_2",NA,NA,NA,"response",1509.59199996571,67814.2599999555,67811.422,67844.588,69354.1799999657,69358.5650000023,"2020-07-06T20:15:15.754Z",69378.25,NA,NA,NA,NA,NA,NA,NA,NA,"Respond_Left","click @Response_Left"
"Sequence","flow.Sequence","9_9",NA,NA,NA,"completion",3043.29099996571,66293.0150000029,66294.237,66310.889,69354.1799999657,69361.2449999782,"2020-07-06T20:15:15.756Z",69378.25,NA,NA,NA,NA,NA,NA,NA,NA,NA,NA
"Start Button","canvas.Screen","9_10_0",NA,NA,NA,"response",1184.08499996597,69362.679999962,69361.565,69378.25,70562.334999966,70567.5649999757,"2020-07-06T20:15:16.963Z",70578.567,NA,NA,NA,NA,NA,NA,NA,NA,"Start Position","click @Start_Button"
"Mask","canvas.Screen","9_10_1",NA,NA,NA,"timeout",200.649000000005,70568.5099999537,70561.748,70578.567,70762.069,70765.6349999597,"2020-07-06T20:15:17.161Z",70779.216,NA,NA,NA,NA,NA,NA,NA,NA,NA,NA
"Comparison","canvas.Screen","9_10_2",NA,NA,NA,"response",1527.65399997124,70766.634999949,70762.069,70779.216,72306.8699999712,72309.9199999706,"2020-07-06T20:15:18.705Z",72328.944,NA,NA,NA,NA,NA,NA,NA,NA,"Respond_Left","click @Response_Left"
"Sequence","flow.Sequence","9_10",NA,NA,NA,"completion",2928.61999997124,69362.3549999902,69361.565,69378.25,72306.8699999712,72312.099999981,"2020-07-06T20:15:18.707Z",72328.944,NA,NA,NA,NA,NA,NA,NA,NA,NA,NA
"Start Button","canvas.Screen","9_11_0",NA,NA,NA,"response",1227.74599999761,72313.0649999948,72312.318,72328.944,73556.6899999976,73559.5199999516,"2020-07-06T20:15:19.955Z",73579.341,NA,NA,NA,NA,NA,NA,NA,NA,"Start Position","click @Start_Button"
"Mask","canvas.Screen","9_11_1",NA,NA,NA,"timeout",199.986999999994,73560.439999972,73546.023,73579.341,73762.713,73764.7799999686,"2020-07-06T20:15:20.160Z",73779.328,NA,NA,NA,NA,NA,NA,NA,NA,NA,NA
"Comparison","canvas.Screen","9_11_2",NA,NA,NA,"response",1949.7319999833,73765.5099999974,73762.713,73779.328,75729.0599999833,75735.0049999659,"2020-07-06T20:15:22.130Z",75796.444,NA,NA,NA,NA,NA,NA,NA,NA,"Respond_Right","click @Response_Right"
"Sequence","flow.Sequence","9_11",NA,NA,NA,"completion",3400.11599998329,72312.8900000011,72312.318,72328.944,75729.0599999833,75737.1699999785,"2020-07-06T20:15:22.132Z",75796.444,NA,NA,NA,NA,NA,NA,NA,NA,NA,NA
"Perceptual Comparison","flow.Loop","9",NA,NA,NA,"completion",40092.5029999833,35640.1999999653,35620.052,35636.557,75729.0599999833,75737.994999974,"2020-07-06T20:15:22.133Z",75796.444,NA,NA,NA,NA,NA,NA,NA,NA,NA,NA
"Practice Instructions","html.Page","10",NA,NA,"","form submission",1868.45599997429,75738.4949999978,75746.543,75796.444,77664.8999999743,77665.319999971,"2020-07-06T20:15:24.060Z",77680.247,NA,NA,NA,NA,NA,NA,NA,NA,NA,NA
"Start Button","canvas.Screen","11_0_0",NA,NA,NA,"response",1640.51299997323,77665.85999995,77647.013,77680.247,79320.7599999732,79323.8899999997,"2020-07-06T20:15:25.719Z",79347.481,NA,NA,NA,NA,NA,NA,NA,NA,"Start Position","click @Start_Button"
"Mask","canvas.Screen","11_0_1",NA,NA,NA,"timeout",200.023000000001,79325.1799999853,79314.033,79347.481,79531.055,79534.5949999755,"2020-07-06T20:15:25.930Z",79547.504,NA,NA,NA,NA,NA,NA,NA,NA,NA,NA
"Practice","canvas.Screen","11_0_2",NA,NA,NA,"response",1367.07599998238,79535.654999956,79531.055,79547.504,80914.5799999824,80915.7649999834,"2020-07-06T20:15:27.311Z",80931.205,NA,NA,NA,NA,NA,NA,NA,NA,"Respond_Left","click @Response_Left"
"Sequence","flow.Sequence","11_0",NA,NA,NA,"completion",3234.33299998238,77665.7799999812,77647.013,77680.247,80914.5799999824,80916.4299999829,"2020-07-06T20:15:27.312Z",80931.205,NA,NA,NA,NA,NA,NA,NA,NA,NA,NA
"Start Button","canvas.Screen","11_1_0",NA,NA,NA,"response",1143.3399999813,80916.5749999811,80914.474,80931.205,82074.5449999813,82075.7749999757,"2020-07-06T20:15:28.471Z",82081.368,NA,NA,NA,NA,NA,NA,NA,NA,"Start Position","click @Start_Button"
"Mask","canvas.Screen","11_1_1",NA,NA,NA,"timeout",200.104999999996,82076.1099999654,82064.865,82081.368,82264.99,82267.0550000039,"2020-07-06T20:15:28.662Z",82281.473,NA,NA,NA,NA,NA,NA,NA,NA,NA,NA
"Practice","canvas.Screen","11_1_2",NA,NA,NA,"response",1254.35699994978,82267.9449999705,82264.99,82281.473,83535.8299999498,83538.9949999517,"2020-07-06T20:15:29.934Z",83565.189,NA,NA,NA,NA,NA,NA,NA,NA,"Respond_Left","click @Response_Left"
"Sequence","flow.Sequence","11_1",NA,NA,NA,"completion",2604.62499994978,80916.5399999474,80914.474,80931.205,83535.8299999498,83540.8999999636,"2020-07-06T20:15:29.936Z",83565.189,NA,NA,NA,NA,NA,NA,NA,NA,NA,NA
"Start Button","canvas.Screen","11_2_0",NA,NA,NA,"response",1184.77599996632,83541.6149999946,83531.634,83565.189,84749.9649999663,84754.0599999484,"2020-07-06T20:15:31.149Z",84782.222,NA,NA,NA,NA,NA,NA,NA,NA,"Start Position","click @Start_Button"
"Mask","canvas.Screen","11_2_1",NA,NA,NA,"timeout",199.950000000012,84755.0000000047,84748.773,84782.222,84965.613,84968.6050000018,"2020-07-06T20:15:31.364Z",84982.172,NA,NA,NA,NA,NA,NA,NA,NA,NA,NA
"Practice","canvas.Screen","11_2_2",NA,NA,NA,"response",1453.94299998951,84969.4199999794,84965.613,84982.172,86436.1149999895,86439.6399999969,"2020-07-06T20:15:32.835Z",86449.274,NA,NA,NA,NA,NA,NA,NA,NA,"Respond_Right","click @Response_Right"
"Sequence","flow.Sequence","11_2",NA,NA,NA,"completion",2870.92599998951,83541.4449999807,83531.634,83565.189,86436.1149999895,86441.4049999905,"2020-07-06T20:15:32.837Z",86449.274,NA,NA,NA,NA,NA,NA,NA,NA,NA,NA
"Start Button","canvas.Screen","11_3_0",NA,NA,NA,"response",2675.80599996887,86442.1499999589,86432.391,86449.274,89125.0799999689,89128.0049999477,"2020-07-06T20:15:35.523Z",89133.268,NA,NA,NA,NA,NA,NA,NA,NA,"Start Position","click @Start_Button"
"Mask","canvas.Screen","11_3_1",NA,NA,NA,"timeout",199.963000000003,89128.9249999681,89116.491,89133.268,89316.695,89320.2199999942,"2020-07-06T20:15:35.715Z",89333.231,NA,NA,NA,NA,NA,NA,NA,NA,NA,NA
"Practice","canvas.Screen","11_3_2",NA,NA,NA,"response",1616.77399999151,89321.1399999564,89316.695,89333.231,90950.0049999915,90953.9249999798,"2020-07-06T20:15:37.349Z",90967.039,NA,NA,NA,NA,NA,NA,NA,NA,"Respond_Left","click @Response_Left"
"Sequence","flow.Sequence","11_3",NA,NA,NA,"completion",4500.7309999915,86441.9599999674,86432.391,86449.274,90950.0049999915,90955.8399999514,"2020-07-06T20:15:37.351Z",90967.039,NA,NA,NA,NA,NA,NA,NA,NA,NA,NA
"Start Button","canvas.Screen","11_4_0",NA,NA,NA,"response",1276.34599997975,90956.6049999557,90950.343,90967.039,92243.3849999798,92246.2449999875,"2020-07-06T20:15:38.641Z",92250.655,NA,NA,NA,NA,NA,NA,NA,NA,"Start Position","click @Start_Button"
"Mask","canvas.Screen","11_4_1",NA,NA,NA,"timeout",200.103000000003,92247.15499999,92233.957,92250.655,92434.127,92435.9699999914,"2020-07-06T20:15:38.831Z",92450.758,NA,NA,NA,NA,NA,NA,NA,NA,NA,NA
"Practice","canvas.Screen","11_4_2",NA,NA,NA,"response",1204.17199996058,92436.7699999711,92434.127,92450.758,93654.9299999606,93659.5699999598,"2020-07-06T20:15:40.055Z",93667.666,NA,NA,NA,NA,NA,NA,NA,NA,"Respond_Right","click @Response_Right"
"Sequence","flow.Sequence","11_4",NA,NA,NA,"completion",2687.89099996058,90956.4200000023,90950.343,90967.039,93654.9299999606,93661.540000001,"2020-07-06T20:15:40.057Z",93667.666,NA,NA,NA,NA,NA,NA,NA,NA,NA,NA
"Start Button","canvas.Screen","11_5_0",NA,NA,NA,"response",1416.84399995694,93662.3599999584,93650.967,93667.666,95084.5099999569,95088.069999998,"2020-07-06T20:15:41.483Z",95101.397,NA,NA,NA,NA,NA,NA,NA,NA,"Start Position","click @Start_Button"
"Mask","canvas.Screen","11_5_1",NA,NA,NA,"timeout",200.004000000001,95089.0249999939,95084.574,95101.397,95284.869,95286.9049999863,"2020-07-06T20:15:41.682Z",95301.401,NA,NA,NA,NA,NA,NA,NA,NA,NA,NA
"Practice","canvas.Screen","11_5_2",NA,NA,NA,"response",1347.57899999812,95287.7049999661,95284.869,95301.401,96648.9799999981,96652.8599999729,"2020-07-06T20:15:43.048Z",96668.482,NA,NA,NA,NA,NA,NA,NA,NA,"Respond_Right","click @Response_Right"
"Sequence","flow.Sequence","11_5",NA,NA,NA,"completion",2981.31399999812,93662.1699999669,93650.967,93667.666,96648.9799999981,96656.0649999883,"2020-07-06T20:15:43.051Z",96668.482,NA,NA,NA,NA,NA,NA,NA,NA,NA,NA
"Start Button","canvas.Screen","11_6_0",NA,NA,NA,"response",1193.51299998474,96656.869999948,96651.491,96668.482,97861.9949999847,97864.9199999636,"2020-07-06T20:15:44.260Z",97868.649,NA,NA,NA,NA,NA,NA,NA,NA,"Start Position","click @Start_Button"
"Mask","canvas.Screen","11_6_1",NA,NA,NA,"timeout",200.110000000001,97865.764999995,97851.983,97868.649,98052.142,98053.9499999722,"2020-07-06T20:15:44.450Z",98068.759,NA,NA,NA,NA,NA,NA,NA,NA,NA,NA
"Practice","canvas.Screen","11_6_2",NA,NA,NA,"response",1538.50599999873,98054.6899999608,98052.142,98068.759,99607.2649999987,99610.3549999534,"2020-07-06T20:15:46.006Z",99635.868,NA,NA,NA,NA,NA,NA,NA,NA,"Respond_Left","click @Response_Left"
"Sequence","flow.Sequence","11_6",NA,NA,NA,"completion",2938.78299999873,96656.6949999542,96651.491,96668.482,99607.2649999987,99612.209999992,"2020-07-06T20:15:46.008Z",99635.868,NA,NA,NA,NA,NA,NA,NA,NA,NA,NA
"Start Button","canvas.Screen","11_7_0",NA,NA,NA,"response",1510.95199996537,99612.9499999806,99602.248,99635.868,101146.819999965,101149.384999997,"2020-07-06T20:15:47.545Z",101169.524,NA,NA,NA,NA,NA,NA,NA,NA,"Start Position","click @Start_Button"
"Mask","canvas.Screen","11_7_1",NA,NA,NA,"timeout",200.227999999988,101150.169999979,101136.267,101169.524,101352.914,101353.774999967,"2020-07-06T20:15:47.750Z",101369.752,NA,NA,NA,NA,NA,NA,NA,NA,NA,NA
"Practice","canvas.Screen","11_7_2",NA,NA,NA,"response",1231.53799996233,101354.004999972,101352.914,101369.752,102601.289999962,102606.744999997,"2020-07-06T20:15:49.003Z",102636.659,NA,NA,NA,NA,NA,NA,NA,NA,"Respond_Right","click @Response_Right"
"Sequence","flow.Sequence","11_7",NA,NA,NA,"completion",2965.42199996232,99612.7749999869,99602.248,99635.868,102601.289999962,102610.404999985,"2020-07-06T20:15:49.006Z",102636.659,NA,NA,NA,NA,NA,NA,NA,NA,NA,NA
"Start Button","canvas.Screen","11_8_0",NA,NA,NA,"response",1055.14599995127,102611.174999969,102603.181,102636.659,103691.804999951,103695.550000004,"2020-07-06T20:15:50.091Z",103720.249,NA,NA,NA,NA,NA,NA,NA,NA,"Start Position","click @Start_Button"
"Mask","canvas.Screen","11_8_1",NA,NA,NA,"timeout",200.005000000005,103697.144999984,103686.799,103720.249,103903.753,103906.524999999,"2020-07-06T20:15:50.302Z",103920.254,NA,NA,NA,NA,NA,NA,NA,NA,NA,NA
"Practice","canvas.Screen","11_8_2",NA,NA,NA,"response",1769.73100000453,103907.524999988,103903.753,103920.254,105689.985000005,105692.654999963,"2020-07-06T20:15:52.088Z",105720.887,NA,NA,NA,NA,NA,NA,NA,NA,"Respond_Right","click @Response_Right"
"Sequence","flow.Sequence","11_8",NA,NA,NA,"completion",3053.32600000453,102611.014999973,102603.181,102636.659,105689.985000005,105694.524999999,"2020-07-06T20:15:52.090Z",105720.887,NA,NA,NA,NA,NA,NA,NA,NA,NA,NA
"Start Button","canvas.Screen","11_9_0",NA,NA,NA,"response",1459.65799995196,105695.674999966,105687.421,105720.887,107180.544999952,107183.495000005,"2020-07-06T20:15:53.579Z",107221.032,NA,NA,NA,NA,NA,NA,NA,NA,"Start Position","click @Start_Button"
"Mask","canvas.Screen","11_9_1",NA,NA,NA,"timeout",200.077999999994,107199.344999972,107187.571,107221.032,107404.472,107406.874999986,"2020-07-06T20:15:53.803Z",107421.11,NA,NA,NA,NA,NA,NA,NA,NA,NA,NA
"Practice","canvas.Screen","11_9_2",NA,NA,NA,"response",1282.13999996228,107407.794999948,107404.472,107421.11,108703.249999962,108707.904999959,"2020-07-06T20:15:55.104Z",108738.033,NA,NA,NA,NA,NA,NA,NA,NA,"Respond_Left","click @Response_Left"
"Sequence","flow.Sequence","11_9",NA,NA,NA,"completion",2982.36299996228,105695.414999966,105687.421,105720.887,108703.249999962,108710.329999973,"2020-07-06T20:15:55.106Z",108738.033,NA,NA,NA,NA,NA,NA,NA,NA,NA,NA
"Practice Trials","flow.Loop","11",NA,NA,NA,"completion",31023.0029999623,77665.6899999944,77647.013,77680.247,108703.249999962,108711.159999948,"2020-07-06T20:15:55.107Z",108738.033,NA,NA,NA,NA,NA,NA,NA,NA,NA,NA
"Experimental Trials instructions","html.Page","12",NA,NA,"","form submission",2742.85699994798,108711.659999972,108704.711,108738.033,111480.889999948,111481.66999995,"2020-07-06T20:15:57.877Z",111505.419,NA,NA,NA,NA,NA,NA,NA,NA,NA,NA
"Start Button","canvas.Screen","13_0_0",NA,NA,NA,"response",1468.54599995376,111482.874999987,111472.181,111505.419,112973.964999954,112978.35999995,"2020-07-06T20:15:59.374Z",112989.174,NA,NA,NA,NA,NA,NA,NA,NA,"Start Position","click @Start_Button"
"Mask","canvas.Screen","13_0_1",NA,NA,NA,"timeout",199.930999999997,112979.519999993,112972.567,112989.174,113172.609,113174.044999992,"2020-07-06T20:15:59.570Z",113189.105,NA,NA,NA,NA,NA,NA,NA,NA,NA,NA
"Pre_Manip Exp Trial","canvas.Screen","13_0_2",NA,NA,NA,"response",1390.94499998957,113174.334999989,113172.609,113189.105,114580.04999999,114583.699999959,"2020-07-06T20:16:00.980Z",114606.312,NA,NA,NA,NA,NA,NA,NA,NA,"Respond_Right","click @Response_Right"
"Sequence","flow.Sequence","13_0",NA,NA,NA,"completion",3074.63099998957,111482.719999971,111472.181,111505.419,114580.04999999,114585.644999985,"2020-07-06T20:16:00.981Z",114606.312,NA,NA,NA,NA,NA,NA,NA,NA,NA,NA
"Start Button","canvas.Screen","13_1_0",NA,NA,NA,"response",1086.13799997317,114586.34499996,114572.761,114606.312,115692.449999973,115696.519999998,"2020-07-06T20:16:02.092Z",115723.163,NA,NA,NA,NA,NA,NA,NA,NA,"Start Position","click @Start_Button"
"Mask","canvas.Screen","13_1_1",NA,NA,NA,"timeout",216.864000000001,115697.829999961,115689.714,115723.163,115906.796,115910.69499997,"2020-07-06T20:16:02.307Z",115940.027,NA,NA,NA,NA,NA,NA,NA,NA,NA,NA
"Pre_Manip Exp Trial","canvas.Screen","13_1_2",NA,NA,NA,"response",1296.22299995809,115911.62499995,115906.796,115940.027,117236.249999958,117239.709999994,"2020-07-06T20:16:03.636Z",117256.957,NA,NA,NA,NA,NA,NA,NA,NA,"Respond_Left","click @Response_Left"
"Sequence","flow.Sequence","13_1",NA,NA,NA,"completion",2629.93799995809,114586.190000002,114572.761,114606.312,117236.249999958,117243.084999966,"2020-07-06T20:16:03.639Z",117256.957,NA,NA,NA,NA,NA,NA,NA,NA,NA,NA
"Start Button","canvas.Screen","13_2_0",NA,NA,NA,"response",1208.92799995415,117243.799999997,117240.144,117256.957,118465.884999954,118466.749999963,"2020-07-06T20:16:04.863Z",118473.83,NA,NA,NA,NA,NA,NA,NA,NA,"Start Position","click @Start_Button"
"Mask","canvas.Screen","13_2_1",NA,NA,NA,"timeout",200.106,118466.949999973,118457.152,118473.83,118657.432,118659.354999952,"2020-07-06T20:16:05.055Z",118673.936,NA,NA,NA,NA,NA,NA,NA,NA,NA,NA
"Pre_Manip Exp Trial","canvas.Screen","13_2_2",NA,NA,NA,"response",1247.32899995356,118660.239999997,118657.432,118673.936,119921.264999954,119925.214999996,"2020-07-06T20:16:06.321Z",119957.567,NA,NA,NA,NA,NA,NA,NA,NA,"Respond_Right","click @Response_Right"
"Sequence","flow.Sequence","13_2",NA,NA,NA,"completion",2664.30799995357,117243.640000001,117240.144,117256.957,119921.264999954,119928.109999979,"2020-07-06T20:16:06.324Z",119957.567,NA,NA,NA,NA,NA,NA,NA,NA,NA,NA
"Start Button","canvas.Screen","13_3_0",NA,NA,NA,"response",1148.6130000025,119928.779999958,119924.095,119957.567,121106.180000002,121109.674999956,"2020-07-06T20:16:07.506Z",121124.552,NA,NA,NA,NA,NA,NA,NA,NA,"Start Position","click @Start_Button"
"Mask","canvas.Screen","13_3_1",NA,NA,NA,"timeout",200.031000000003,121110.854999977,121107.765,121124.552,121308.049,121312.210000004,"2020-07-06T20:16:07.708Z",121324.583,NA,NA,NA,NA,NA,NA,NA,NA,NA,NA
"Pre_Manip Exp Trial","canvas.Screen","13_3_2",NA,NA,NA,"response",1481.3719999889,121313.524999947,121308.049,121324.583,122805.954999989,122808.244999964,"2020-07-06T20:16:09.204Z",122824.934,NA,NA,NA,NA,NA,NA,NA,NA,"Respond_Right","click @Response_Right"
"Sequence","flow.Sequence","13_3",NA,NA,NA,"completion",2848.3879999889,119928.619999962,119924.095,119957.567,122805.954999989,122810.039999953,"2020-07-06T20:16:09.206Z",122824.934,NA,NA,NA,NA,NA,NA,NA,NA,NA,NA
"Start Button","canvas.Screen","13_4_0",NA,NA,NA,"response",1027.21099995346,122810.729999968,122808.368,122824.934,123852.144999953,123853.68999996,"2020-07-06T20:16:10.250Z",123958.453,NA,NA,NA,NA,NA,NA,NA,NA,"Start Position","click @Start_Button"
"Mask","canvas.Screen","13_4_1",NA,NA,NA,"timeout",201.067999999999,123854.099999997,123841.833,123958.453,124142.096,124145.694999956,"2020-07-06T20:16:10.542Z",124159.521,NA,NA,NA,NA,NA,NA,NA,NA,NA,NA
"Pre_Manip Exp Trial","canvas.Screen","13_4_2",NA,NA,NA,"response",1379.85399999302,124146.550000005,124142.096,124159.521,125539.374999993,125543.654999987,"2020-07-06T20:16:11.939Z",125559.016,NA,NA,NA,NA,NA,NA,NA,NA,"Respond_Left","click @Response_Left"
"Sequence","flow.Sequence","13_4",NA,NA,NA,"completion",2714.44099999302,122810.624999984,122808.368,122824.934,125539.374999993,125546.600000001,"2020-07-06T20:16:11.942Z",125559.016,NA,NA,NA,NA,NA,NA,NA,NA,NA,NA
"Start Button","canvas.Screen","13_5_0",NA,NA,NA,"response",1048.66399995732,125547.34499997,125542.204,125559.016,126607.679999957,126611.974999949,"2020-07-06T20:16:13.008Z",126625.877,NA,NA,NA,NA,NA,NA,NA,NA,"Start Position","click @Start_Button"
"Mask","canvas.Screen","13_5_1",NA,NA,NA,"timeout",200.082000000009,126613.109999977,126609.227,126625.877,126809.286,126811.040000001,"2020-07-06T20:16:13.207Z",126825.959,NA,NA,NA,NA,NA,NA,NA,NA,NA,NA
"Pre_Manip Exp Trial","canvas.Screen","13_5_2",NA,NA,NA,"response",1388.58099995719,126811.835,126809.286,126825.959,128214.539999957,128217.154999962,"2020-07-06T20:16:14.613Z",128243.142,NA,NA,NA,NA,NA,NA,NA,NA,"Respond_Left","click @Response_Left"
"Sequence","flow.Sequence","13_5",NA,NA,NA,"completion",2655.52399995719,125547.14499996,125542.204,125559.016,128214.539999957,128218.594999984,"2020-07-06T20:16:14.614Z",128243.142,NA,NA,NA,NA,NA,NA,NA,NA,NA,NA
"Start Button","canvas.Screen","13_6_0",NA,NA,NA,"response",1126.15799996209,128219.159999979,128209.721,128243.142,129369.299999962,129372.15999997,"2020-07-06T20:16:15.768Z",129393.282,NA,NA,NA,NA,NA,NA,NA,NA,"Start Position","click @Start_Button"
"Mask","canvas.Screen","13_6_1",NA,NA,NA,"timeout",199.900999999998,129373.034999997,129359.921,129393.282,129576.493,129577.189999982,"2020-07-06T20:16:15.973Z",129593.183,NA,NA,NA,NA,NA,NA,NA,NA,NA,NA
"Pre_Manip Exp Trial","canvas.Screen","13_6_2",NA,NA,NA,"response",1096.47199999467,129577.46999996,129576.493,129593.183,130689.654999995,130694.544999977,"2020-07-06T20:16:17.090Z",130726.99,NA,NA,NA,NA,NA,NA,NA,NA,"Respond_Left","click @Response_Left"
"Sequence","flow.Sequence","13_6",NA,NA,NA,"completion",2446.51299999467,128219.029999978,128209.721,128243.142,130689.654999995,130697.794999985,"2020-07-06T20:16:17.094Z",130726.99,NA,NA,NA,NA,NA,NA,NA,NA,NA,NA
"Start Button","canvas.Screen","13_7_0",NA,NA,NA,"response",1187.38999997287,130698.504999978,130693.533,130726.99,131914.379999973,131917.374999961,"2020-07-06T20:16:18.313Z",131943.973,NA,NA,NA,NA,NA,NA,NA,NA,"Start Position","click @Start_Button"
"Mask","canvas.Screen","13_7_1",NA,NA,NA,"timeout",199.940000000002,131918.290000001,131910.483,131943.973,132127.414,132129.789999977,"2020-07-06T20:16:18.526Z",132143.913,NA,NA,NA,NA,NA,NA,NA,NA,NA,NA
"Pre_Manip Exp Trial","canvas.Screen","13_7_2",NA,NA,NA,"response",1466.25699999993,132130.729999975,132127.414,132143.913,133610.17,133614.694999997,"2020-07-06T20:16:20.011Z",133627.666,NA,NA,NA,NA,NA,NA,NA,NA,"Respond_Right","click @Response_Right"
"Sequence","flow.Sequence","13_7",NA,NA,NA,"completion",2883.17999999992,130698.35999998,130693.533,130726.99,133610.17,133616.645000002,"2020-07-06T20:16:20.012Z",133627.666,NA,NA,NA,NA,NA,NA,NA,NA,NA,NA
"Start Button","canvas.Screen","13_8_0",NA,NA,NA,"response",1090.89899998831,133617.319999961,133610.993,133627.666,134718.564999988,134721.86999995,"2020-07-06T20:16:21.118Z",134744.665,NA,NA,NA,NA,NA,NA,NA,NA,"Start Position","click @Start_Button"
"Mask","canvas.Screen","13_8_1",NA,NA,NA,"timeout",199.963999999978,134722.719999962,134711.303,134744.665,134928.052,134931.299999997,"2020-07-06T20:16:21.327Z",134944.629,NA,NA,NA,NA,NA,NA,NA,NA,NA,NA
"Pre_Manip Exp Trial","canvas.Screen","13_8_2",NA,NA,NA,"response",1143.51099994892,134932.325000002,134928.052,134944.629,136088.139999949,136091.764999961,"2020-07-06T20:16:22.488Z",136111.582,NA,NA,NA,NA,NA,NA,NA,NA,"Respond_Left","click @Response_Left"
"Sequence","flow.Sequence","13_8",NA,NA,NA,"completion",2460.47399994891,133617.174999963,133610.993,133627.666,136088.139999949,136093.529999955,"2020-07-06T20:16:22.489Z",136111.582,NA,NA,NA,NA,NA,NA,NA,NA,NA,NA
"Start Button","canvas.Screen","13_9_0",NA,NA,NA,"response",1181.34299995791,136094.364999968,136094.998,136111.582,137292.924999958,137296.404999972,"2020-07-06T20:16:23.692Z",137311.914,NA,NA,NA,NA,NA,NA,NA,NA,"Start Position","click @Start_Button"
"Mask","canvas.Screen","13_9_1",NA,NA,NA,"timeout",200.008000000002,137297.664999962,137295.314,137311.914,137495.308,137497.600000002,"2020-07-06T20:16:23.893Z",137511.922,NA,NA,NA,NA,NA,NA,NA,NA,NA,NA
"Pre_Manip Exp Trial","canvas.Screen","13_9_2",NA,NA,NA,"response",1238.96299998675,137498.514999985,137495.308,137511.922,138750.884999987,138751.850000001,"2020-07-06T20:16:25.148Z",138762.293,NA,NA,NA,NA,NA,NA,NA,NA,"Respond_Left","click @Response_Left"
"Sequence","flow.Sequence","13_9",NA,NA,NA,"completion",2639.30299998674,136094.209999952,136094.998,136111.582,138750.884999987,138752.19499995,"2020-07-06T20:16:25.148Z",138762.293,NA,NA,NA,NA,NA,NA,NA,NA,NA,NA
"Start Button","canvas.Screen","13_10_0",NA,NA,NA,"response",1276.2219999638,138752.309999953,138745.537,138762.293,140038.514999964,140041.449999961,"2020-07-06T20:16:26.437Z",140062.585,NA,NA,NA,NA,NA,NA,NA,NA,"Start Position","click @Start_Button"
"Mask","canvas.Screen","13_10_1",NA,NA,NA,"timeout",200.074000000022,140042.379999999,140029.148,140062.585,140246.089,140248.525000003,"2020-07-06T20:16:26.644Z",140262.659,NA,NA,NA,NA,NA,NA,NA,NA,NA,NA
"Pre_Manip Exp Trial","canvas.Screen","13_10_2",NA,NA,NA,"response",1138.41600000157,140249.414999969,140246.089,140262.659,141401.075000002,141404.385000002,"2020-07-06T20:16:27.800Z",141429.66,NA,NA,NA,NA,NA,NA,NA,NA,"Respond_Left","click @Response_Left"
"Sequence","flow.Sequence","13_10",NA,NA,NA,"completion",2638.78200000158,138752.284999995,138745.537,138762.293,141401.075000002,141406.354999985,"2020-07-06T20:16:27.802Z",141429.66,NA,NA,NA,NA,NA,NA,NA,NA,NA,NA
"Start Button","canvas.Screen","13_11_0",NA,NA,NA,"response",1117.38999999376,141407.224999974,141396.224,141429.66,142547.049999994,142551.659999997,"2020-07-06T20:16:28.947Z",142563.238,NA,NA,NA,NA,NA,NA,NA,NA,"Start Position","click @Start_Button"
"Mask","canvas.Screen","13_11_1",NA,NA,NA,"timeout",200.050999999978,142552.599999995,142546.442,142563.238,142746.645,142748.439999996,"2020-07-06T20:16:29.144Z",142763.289,NA,NA,NA,NA,NA,NA,NA,NA,NA,NA
"Pre_Manip Exp Trial","canvas.Screen","13_11_2",NA,NA,NA,"response",1142.14099998435,142749.064999982,142746.645,142763.289,143905.429999984,143908.609999984,"2020-07-06T20:16:30.304Z",143930.272,NA,NA,NA,NA,NA,NA,NA,NA,"Respond_Right","click @Response_Right"
"Sequence","flow.Sequence","13_11",NA,NA,NA,"completion",2475.76999998433,141407.064999978,141396.224,141429.66,143905.429999984,143910.36499996,"2020-07-06T20:16:30.306Z",143930.272,NA,NA,NA,NA,NA,NA,NA,NA,NA,NA
"Start Button","canvas.Screen","13_12_0",NA,NA,NA,"response",1130.53299995733,143911.014999961,143896.836,143930.272,145060.804999957,145063.869999954,"2020-07-06T20:16:31.460Z",145080.491,NA,NA,NA,NA,NA,NA,NA,NA,"Start Position","click @Start_Button"
"Mask","canvas.Screen","13_12_1",NA,NA,NA,"timeout",200.013999999996,145065.239999967,145063.705,145080.491,145263.978,145266.074999992,"2020-07-06T20:16:31.662Z",145280.505,NA,NA,NA,NA,NA,NA,NA,NA,NA,NA
"Pre_Manip Exp Trial","canvas.Screen","13_12_2",NA,NA,NA,"response",1379.96999998239,145266.824999999,145263.978,145280.505,146660.474999982,146663.789999962,"2020-07-06T20:16:33.060Z",146697.649,NA,NA,NA,NA,NA,NA,NA,NA,"Respond_Right","click @Response_Right"
"Sequence","flow.Sequence","13_12",NA,NA,NA,"completion",2730.2029999824,143910.860000004,143896.836,143930.272,146660.474999982,146669.279999973,"2020-07-06T20:16:33.065Z",146697.649,NA,NA,NA,NA,NA,NA,NA,NA,NA,NA
"Start Button","canvas.Screen","13_13_0",NA,NA,NA,"response",1263.99599997394,146670.010000002,146664.113,146697.649,147961.644999974,147964.760000003,"2020-07-06T20:16:34.361Z",147981.196,NA,NA,NA,NA,NA,NA,NA,NA,"Start Position","click @Start_Button"
"Mask","canvas.Screen","13_13_1",NA,NA,NA,"timeout",200.054000000004,147966.794999957,147964.633,147981.196,148164.828,148168.604999955,"2020-07-06T20:16:34.564Z",148181.25,NA,NA,NA,NA,NA,NA,NA,NA,NA,NA
"Pre_Manip Exp Trial","canvas.Screen","13_13_2",NA,NA,NA,"response",1828.95499999868,148169.469999964,148164.828,148181.25,150010.204999999,150013.789999997,"2020-07-06T20:16:36.410Z",150031.649,NA,NA,NA,NA,NA,NA,NA,NA,"Respond_Right","click @Response_Right"
"Sequence","flow.Sequence","13_13",NA,NA,NA,"completion",3312.55599999867,146669.849999947,146664.113,146697.649,150010.204999999,150016.520000005,"2020-07-06T20:16:36.412Z",150031.649,NA,NA,NA,NA,NA,NA,NA,NA,NA,NA
"Start Button","canvas.Screen","13_14_0",NA,NA,NA,"response",1128.12599994914,150017.68499997,150015.189,150031.649,151159.774999949,151162.814999989,"2020-07-06T20:16:37.559Z",151181.99,NA,NA,NA,NA,NA,NA,NA,NA,"Start Position","click @Start_Button"
"Mask","canvas.Screen","13_14_1",NA,NA,NA,"timeout",200.032000000007,151163.689999958,151148.662,151181.99,151365.566,151367.629999993,"2020-07-06T20:16:37.763Z",151382.022,NA,NA,NA,NA,NA,NA,NA,NA,NA,NA
"Pre_Manip Exp Trial","canvas.Screen","13_14_2",NA,NA,NA,"response",1060.50299996219,151368.38499998,151365.566,151382.022,152442.524999962,152445.729999978,"2020-07-06T20:16:38.842Z",152465.697,NA,NA,NA,NA,NA,NA,NA,NA,"Respond_Left","click @Response_Left"
"Sequence","flow.Sequence","13_14",NA,NA,NA,"completion",2410.87599996218,150017.509999976,150015.189,150031.649,152442.524999962,152447.729999956,"2020-07-06T20:16:38.844Z",152465.697,NA,NA,NA,NA,NA,NA,NA,NA,NA,NA
"Start Button","canvas.Screen","13_15_0",NA,NA,NA,"response",1330.33299996861,152448.539999954,152448.993,152465.697,153796.029999969,153797.329999972,"2020-07-06T20:16:40.193Z",153816.044,NA,NA,NA,NA,NA,NA,NA,NA,"Start Position","click @Start_Button"
"Mask","canvas.Screen","13_15_1",NA,NA,NA,"timeout",200.67300000001,153797.644999984,153782.582,153816.044,153999.529,154002.029999974,"2020-07-06T20:16:40.398Z",154016.717,NA,NA,NA,NA,NA,NA,NA,NA,NA,NA
"Pre_Manip Exp Trial","canvas.Screen","13_15_2",NA,NA,NA,"response",1274.33799997967,154002.905000001,153999.529,154016.717,155291.05499998,155294.304999989,"2020-07-06T20:16:41.690Z",155316.399,NA,NA,NA,NA,NA,NA,NA,NA,"Respond_Left","click @Response_Left"
"Sequence","flow.Sequence","13_15",NA,NA,NA,"completion",2825.35799997969,152448.369999998,152448.993,152465.697,155291.05499998,155296.384999994,"2020-07-06T20:16:41.692Z",155316.399,NA,NA,NA,NA,NA,NA,NA,NA,NA,NA
"Start Button","canvas.Screen","13_16_0",NA,NA,NA,"response",2508.56599997796,155297.074999951,155283.154,155316.399,157824.964999978,157827.924999991,"2020-07-06T20:16:44.224Z",157850.394,NA,NA,NA,NA,NA,NA,NA,NA,"Start Position","click @Start_Button"
"Mask","canvas.Screen","13_16_1",NA,NA,NA,"timeout",200.030999999988,157828.864999989,157817,157850.394,158033.784,158035.860000004,"2020-07-06T20:16:44.431Z",158050.425,NA,NA,NA,NA,NA,NA,NA,NA,NA,NA
"Pre_Manip Exp Trial","canvas.Screen","13_16_2",NA,NA,NA,"response",1104.87000000413,158036.694999959,158033.784,158050.425,159155.295000004,159158.664999995,"2020-07-06T20:16:45.554Z",159184.127,NA,NA,NA,NA,NA,NA,NA,NA,"Respond_Right","click @Response_Right"
"Sequence","flow.Sequence","13_16",NA,NA,NA,"completion",3838.89600000411,155296.919999993,155283.154,155316.399,159155.295000004,159160.35999998,"2020-07-06T20:16:45.555Z",159184.127,NA,NA,NA,NA,NA,NA,NA,NA,NA,NA
"Start Button","canvas.Screen","13_17_0",NA,NA,NA,"response",1372.47299995259,159161.15,159150.846,159184.127,160556.599999953,160559.404999949,"2020-07-06T20:16:46.955Z",160584.362,NA,NA,NA,NA,NA,NA,NA,NA,"Start Position","click @Start_Button"
"Mask","canvas.Screen","13_17_1",NA,NA,NA,"timeout",200.026000000013,160560.329999949,160550.882,160584.362,160767.87,160770.319999952,"2020-07-06T20:16:47.165Z",160784.388,NA,NA,NA,NA,NA,NA,NA,NA,NA,NA
"Pre_Manip Exp Trial","canvas.Screen","13_17_2",NA,NA,NA,"response",1167.00200000199,160771.199999959,160767.87,160784.388,161951.390000002,161956.829999981,"2020-07-06T20:16:48.352Z",161984.674,NA,NA,NA,NA,NA,NA,NA,NA,"Respond_Right","click @Response_Right"
"Sequence","flow.Sequence","13_17",NA,NA,NA,"completion",2767.26300000199,159160.969999968,159150.846,159184.127,161951.390000002,161958.744999953,"2020-07-06T20:16:48.354Z",161984.674,NA,NA,NA,NA,NA,NA,NA,NA,NA,NA
"Start Button","canvas.Screen","13_18_0",NA,NA,NA,"response",1275.72599997011,161959.374999977,161951.324,161984.674,163260.39999997,163264.344999974,"2020-07-06T20:16:49.659Z",163284.981,NA,NA,NA,NA,NA,NA,NA,NA,"Start Position","click @Start_Button"
"Mask","canvas.Screen","13_18_1",NA,NA,NA,"timeout",200.10500000001,163265.904999978,163251.683,163284.981,163468.517,163470.824999968,"2020-07-06T20:16:49.866Z",163485.086,NA,NA,NA,NA,NA,NA,NA,NA,NA,NA
"Pre_Manip Exp Trial","canvas.Screen","13_18_2",NA,NA,NA,"response",1043.29399997427,163471.564999956,163468.517,163485.086,164528.379999974,164533.249999979,"2020-07-06T20:16:50.928Z",164552.092,NA,NA,NA,NA,NA,NA,NA,NA,"Respond_Left","click @Response_Left"
"Sequence","flow.Sequence","13_18",NA,NA,NA,"completion",2543.70599997428,161959.234999958,161951.324,161984.674,164528.379999974,164535.319999966,"2020-07-06T20:16:50.930Z",164552.092,NA,NA,NA,NA,NA,NA,NA,NA,NA,NA
"Start Button","canvas.Screen","13_19_0",NA,NA,NA,"response",1085.31299998675,164536.609999952,164535.458,164552.092,165637.404999987,165641.294999979,"2020-07-06T20:16:52.036Z",165669.067,NA,NA,NA,NA,NA,NA,NA,NA,"Start Position","click @Start_Button"
"Mask","canvas.Screen","13_19_1",NA,NA,NA,"timeout",199.911999999982,165642.204999982,165635.682,165669.067,165852.444,165855.754999968,"2020-07-06T20:16:52.251Z",165868.979,NA,NA,NA,NA,NA,NA,NA,NA,NA,NA
"Pre_Manip Exp Trial","canvas.Screen","13_19_2",NA,NA,NA,"response",1305.12599998369,165856.599999999,165852.444,165868.979,167174.104999984,167177.609999955,"2020-07-06T20:16:53.573Z",167202.777,NA,NA,NA,NA,NA,NA,NA,NA,"Respond_Right","click @Response_Right"
"Sequence","flow.Sequence","13_19",NA,NA,NA,"completion",2622.01299998368,164536.434999958,164535.458,164552.092,167174.104999984,167179.319999996,"2020-07-06T20:16:53.574Z",167202.777,NA,NA,NA,NA,NA,NA,NA,NA,NA,NA
"Start Button","canvas.Screen","13_20_0",NA,NA,NA,"response",999.937999963062,167179.969999997,167169.185,167202.777,168202.714999963,168208.314999996,"2020-07-06T20:16:54.603Z",168219.922,NA,NA,NA,NA,NA,NA,NA,NA,"Start Position","click @Start_Button"
"Mask","canvas.Screen","13_20_1",NA,NA,NA,"timeout",199.681000000011,168209.189999965,168202.85,168219.922,168403.15,168405.199999979,"2020-07-06T20:16:54.800Z",168419.603,NA,NA,NA,NA,NA,NA,NA,NA,NA,NA
"Pre_Manip Exp Trial","canvas.Screen","13_20_2",NA,NA,NA,"response",1204.00699995144,168405.92499997,168403.15,168419.603,169623.609999951,169626.744999958,"2020-07-06T20:16:56.022Z",169653.262,NA,NA,NA,NA,NA,NA,NA,NA,"Respond_Right","click @Response_Right"
"Sequence","flow.Sequence","13_20",NA,NA,NA,"completion",2420.83299995144,167179.834999959,167169.185,167202.777,169623.609999951,169628.729999997,"2020-07-06T20:16:56.024Z",169653.262,NA,NA,NA,NA,NA,NA,NA,NA,NA,NA
"Start Button","canvas.Screen","13_21_0",NA,NA,NA,"response",1049.80799998867,169629.409999994,169619.904,169653.262,170703.069999989,170706.959999981,"2020-07-06T20:16:57.102Z",170720.2,NA,NA,NA,NA,NA,NA,NA,NA,"Start Position","click @Start_Button"
"Mask","canvas.Screen","13_21_1",NA,NA,NA,"timeout",200.069999999978,170707.809999993,170703.469,170720.2,170903.71,170905.784999952,"2020-07-06T20:16:57.301Z",170920.27,NA,NA,NA,NA,NA,NA,NA,NA,NA,NA
"Pre_Manip Exp Trial","canvas.Screen","13_21_2",NA,NA,NA,"response",1257.22499995262,170906.534999958,170903.71,170920.27,172177.494999953,172180.829999968,"2020-07-06T20:16:58.576Z",172204.031,NA,NA,NA,NA,NA,NA,NA,NA,"Respond_Right","click @Response_Right"
"Sequence","flow.Sequence","13_21",NA,NA,NA,"completion",2524.23299995263,169629.235,169619.904,169653.262,172177.494999953,172182.614999998,"2020-07-06T20:16:58.578Z",172204.031,NA,NA,NA,NA,NA,NA,NA,NA,NA,NA
"Start Button","canvas.Screen","13_22_0",NA,NA,NA,"response",1616.4889999502,172183.279999997,172170.533,172204.031,173820.51999995,173824.265000003,"2020-07-06T20:17:00.219Z",173837.652,NA,NA,NA,NA,NA,NA,NA,NA,"Start Position","click @Start_Button"
"Mask","canvas.Screen","13_22_1",NA,NA,NA,"timeout",199.951000000001,173825.129999954,173820.934,173837.652,174020.971,174021.729999979,"2020-07-06T20:17:00.417Z",174037.603,NA,NA,NA,NA,NA,NA,NA,NA,NA,NA
"Pre_Manip Exp Trial","canvas.Screen","13_22_2",NA,NA,NA,"response",1220.33200000145,174021.959999984,174020.971,174037.603,175257.935000001,175261.309999973,"2020-07-06T20:17:01.656Z",175287.993,NA,NA,NA,NA,NA,NA,NA,NA,"Respond_Right","click @Response_Right"
"Sequence","flow.Sequence","13_22",NA,NA,NA,"completion",3053.90400000146,172183.134999999,172170.533,172204.031,175257.935000001,175263.214999984,"2020-07-06T20:17:01.658Z",175287.993,NA,NA,NA,NA,NA,NA,NA,NA,NA,NA
"Start Button","canvas.Screen","13_23_0",NA,NA,NA,"response",1053.86699998591,175263.894999982,175254.689,175287.993,176341.859999986,176344.790000003,"2020-07-06T20:17:02.740Z",176354.985,NA,NA,NA,NA,NA,NA,NA,NA,"Start Position","click @Start_Button"
"Mask","canvas.Screen","13_23_1",NA,NA,NA,"timeout",200.199000000022,176345.614999998,176338.385,176354.985,176538.441,176540.049999952,"2020-07-06T20:17:02.935Z",176555.184,NA,NA,NA,NA,NA,NA,NA,NA,NA,NA
"Pre_Manip Exp Trial","canvas.Screen","13_23_2",NA,NA,NA,"response",1317.54600000277,176540.609999967,176538.441,176555.184,177872.730000003,177878.744999995,"2020-07-06T20:17:04.274Z",177905.419,NA,NA,NA,NA,NA,NA,NA,NA,"Respond_Right","click @Response_Right"
"Sequence","flow.Sequence","13_23",NA,NA,NA,"completion",2584.73700000279,175263.734999986,175254.689,175287.993,177872.730000003,177880.649999948,"2020-07-06T20:17:04.276Z",177905.419,NA,NA,NA,NA,NA,NA,NA,NA,NA,NA
"Start Button","canvas.Screen","13_24_0",NA,NA,NA,"response",1111.50600000354,177881.279999972,177872.013,177905.419,179016.925000004,179019.809999969,"2020-07-06T20:17:05.415Z",179038.982,NA,NA,NA,NA,NA,NA,NA,NA,"Start Position","click @Start_Button"
"Mask","canvas.Screen","13_24_1",NA,NA,NA,"timeout",200.089000000007,179020.65999998,179005.608,179038.982,179222.499,179224.354999955,"2020-07-06T20:17:05.619Z",179239.071,NA,NA,NA,NA,NA,NA,NA,NA,NA,NA
"Pre_Manip Exp Trial","canvas.Screen","13_24_2",NA,NA,NA,"response",1329.31899997126,179225.194999948,179222.499,179239.071,180568.389999971,180571.874999965,"2020-07-06T20:17:06.967Z",180606.209,NA,NA,NA,NA,NA,NA,NA,NA,"Respond_Left","click @Response_Left"
"Sequence","flow.Sequence","13_24",NA,NA,NA,"completion",2662.97099997126,177881.129999994,177872.013,177905.419,180568.389999971,180575.044999947,"2020-07-06T20:17:06.970Z",180606.209,NA,NA,NA,NA,NA,NA,NA,NA,NA,NA
"Start Button","canvas.Screen","13_25_0",NA,NA,NA,"response",1127.03099997228,180576.384999964,180572.77,180606.209,181733.239999972,181735.619999992,"2020-07-06T20:17:08.131Z",181756.336,NA,NA,NA,NA,NA,NA,NA,NA,"Start Position","click @Start_Button"
"Mask","canvas.Screen","13_25_1",NA,NA,NA,"timeout",199.989000000001,181736.314999987,181723.036,181756.336,181939.811,181942.289999977,"2020-07-06T20:17:08.337Z",181956.325,NA,NA,NA,NA,NA,NA,NA,NA,NA,NA
"Pre_Manip Exp Trial","canvas.Screen","13_25_2",NA,NA,NA,"response",1558.8049999561,181943.174999964,181939.811,181956.325,183515.129999956,183518.329999992,"2020-07-06T20:17:09.913Z",183540.227,NA,NA,NA,NA,NA,NA,NA,NA,"Respond_Right","click @Response_Right"
"Sequence","flow.Sequence","13_25",NA,NA,NA,"completion",2908.92099995611,180576.044999994,180572.77,180606.209,183515.129999956,183520.164999994,"2020-07-06T20:17:09.915Z",183540.227,NA,NA,NA,NA,NA,NA,NA,NA,NA,NA
"Start Button","canvas.Screen","13_26_0",NA,NA,NA,"response",1122.50799996167,183520.824999956,183506.875,183540.227,184662.734999962,184664.009999949,"2020-07-06T20:17:11.059Z",184673.563,NA,NA,NA,NA,NA,NA,NA,NA,"Start Position","click @Start_Button"
"Mask","canvas.Screen","13_26_1",NA,NA,NA,"timeout",216.839000000007,184664.399999951,184657.064,184673.563,184857.153,184861.364999961,"2020-07-06T20:17:11.256Z",184890.402,NA,NA,NA,NA,NA,NA,NA,NA,NA,NA
"Pre_Manip Exp Trial","canvas.Screen","13_26_2",NA,NA,NA,"response",1204.18299995526,184866.159999976,184857.153,184890.402,186094.584999955,186098.389999999,"2020-07-06T20:17:12.494Z",186124.23,NA,NA,NA,NA,NA,NA,NA,NA,"Respond_Left","click @Response_Left"
"Sequence","flow.Sequence","13_26",NA,NA,NA,"completion",2554.35799995525,183520.669999998,183506.875,183540.227,186094.584999955,186100.009999995,"2020-07-06T20:17:12.495Z",186124.23,NA,NA,NA,NA,NA,NA,NA,NA,NA,NA
"Start Button","canvas.Screen","13_27_0",NA,NA,NA,"response",1133.05999997954,186100.630000001,186090.494,186124.23,187257.28999998,187259.994999971,"2020-07-06T20:17:13.655Z",187274.272,NA,NA,NA,NA,NA,NA,NA,NA,"Start Position","click @Start_Button"
"Mask","canvas.Screen","13_27_1",NA,NA,NA,"timeout",200.081000000006,187260.580000002,187257.426,187274.272,187457.861,187460.21499997,"2020-07-06T20:17:13.855Z",187474.353,NA,NA,NA,NA,NA,NA,NA,NA,NA,NA
"Pre_Manip Exp Trial","canvas.Screen","13_27_2",NA,NA,NA,"response",1383.22199997271,187461.049999984,187457.861,187474.353,188857.574999973,188863.394999993,"2020-07-06T20:17:15.259Z",188891.416,NA,NA,NA,NA,NA,NA,NA,NA,"Respond_Right","click @Response_Right"
"Sequence","flow.Sequence","13_27",NA,NA,NA,"completion",2733.3449999727,186100.489999983,186090.494,186124.23,188857.574999973,188868.224999984,"2020-07-06T20:17:15.263Z",188891.416,NA,NA,NA,NA,NA,NA,NA,NA,NA,NA
"Start Button","canvas.Screen","13_28_0",NA,NA,NA,"response",1078.27399999808,188868.889999983,188858.174,188891.416,189969.689999998,189972.719999962,"2020-07-06T20:17:16.368Z",189991.683,NA,NA,NA,NA,NA,NA,NA,NA,"Start Position","click @Start_Button"
"Mask","canvas.Screen","13_28_1",NA,NA,NA,"timeout",200.076000000001,189973.52,189958.23,189991.683,190175.139,190177.324999997,"2020-07-06T20:17:16.572Z",190191.759,NA,NA,NA,NA,NA,NA,NA,NA,NA,NA
"Pre_Manip Exp Trial","canvas.Screen","13_28_2",NA,NA,NA,"response",1158.5209999551,190177.685000002,190175.139,190191.759,191350.279999955,191354.114999995,"2020-07-06T20:17:17.749Z",191375.354,NA,NA,NA,NA,NA,NA,NA,NA,"Respond_Right","click @Response_Right"
"Sequence","flow.Sequence","13_28",NA,NA,NA,"completion",2458.86399995509,188868.729999987,188858.174,188891.416,191350.279999955,191355.809999979,"2020-07-06T20:17:17.751Z",191375.354,NA,NA,NA,NA,NA,NA,NA,NA,NA,NA
"Start Button","canvas.Screen","13_29_0",NA,NA,NA,"response",1428.61099997006,191356.604999979,191341.98,191375.354,192803.96499997,192807.180000003,"2020-07-06T20:17:19.202Z",192825.72,NA,NA,NA,NA,NA,NA,NA,NA,"Start Position","click @Start_Button"
"Mask","canvas.Screen","13_29_1",NA,NA,NA,"timeout",216.753999999986,192808.034999995,192809.079,192825.72,193009.281,193013.875000004,"2020-07-06T20:17:19.409Z",193042.474,NA,NA,NA,NA,NA,NA,NA,NA,NA,NA
"Pre_Manip Exp Trial","canvas.Screen","13_29_2",NA,NA,NA,"response",1160.8359999535,193014.999999956,193009.281,193042.474,194203.309999953,194206.719999958,"2020-07-06T20:17:20.602Z",194226.077,NA,NA,NA,NA,NA,NA,NA,NA,"Respond_Right","click @Response_Right"
"Sequence","flow.Sequence","13_29",NA,NA,NA,"completion",2827.9559999535,191356.294999947,191341.98,191375.354,194203.309999953,194208.554999961,"2020-07-06T20:17:20.604Z",194226.077,NA,NA,NA,NA,NA,NA,NA,NA,NA,NA
"Start Button","canvas.Screen","13_30_0",NA,NA,NA,"response",1319.09799997747,194209.369999997,194209.492,194226.077,195545.174999977,195548.519999953,"2020-07-06T20:17:21.944Z",195576.479,NA,NA,NA,NA,NA,NA,NA,NA,"Start Position","click @Start_Button"
"Mask","canvas.Screen","13_30_1",NA,NA,NA,"timeout",199.989000000001,195549.360000005,195543.136,195576.479,195759.956,195761.849999952,"2020-07-06T20:17:22.157Z",195776.468,NA,NA,NA,NA,NA,NA,NA,NA,NA,NA
"Pre_Manip Exp Trial","canvas.Screen","13_30_2",NA,NA,NA,"response",977.576999950572,195762.794999988,195759.956,195776.468,196754.044999951,196756.689999951,"2020-07-06T20:17:23.152Z",196776.769,NA,NA,NA,NA,NA,NA,NA,NA,"Respond_Left","click @Response_Left"
"Sequence","flow.Sequence","13_30",NA,NA,NA,"completion",2527.96799995058,194209.024999989,194209.492,194226.077,196754.044999951,196758.109999995,"2020-07-06T20:17:23.153Z",196776.769,NA,NA,NA,NA,NA,NA,NA,NA,NA,NA
"Start Button","canvas.Screen","13_31_0",NA,NA,NA,"response",1101.10099996752,196758.644999994,196743.392,196776.769,197877.869999968,197882.140000002,"2020-07-06T20:17:24.277Z",197893.812,NA,NA,NA,NA,NA,NA,NA,NA,"Start Position","click @Start_Button"
"Mask","canvas.Screen","13_31_1",NA,NA,NA,"timeout",200.117999999988,197883.029999968,197876.995,197893.812,198077.16,198080.404999957,"2020-07-06T20:17:24.476Z",198093.93,NA,NA,NA,NA,NA,NA,NA,NA,NA,NA
"Pre_Manip Exp Trial","canvas.Screen","13_31_2",NA,NA,NA,"response",1047.81499997171,198081.139999966,198077.16,198093.93,199141.744999972,199146.139999968,"2020-07-06T20:17:25.541Z",199160.697,NA,NA,NA,NA,NA,NA,NA,NA,"Respond_Right","click @Response_Right"
"Sequence","flow.Sequence","13_31",NA,NA,NA,"completion",2364.97599997171,196758.519999974,196743.392,196776.769,199141.744999972,199147.84999995,"2020-07-06T20:17:25.543Z",199160.697,NA,NA,NA,NA,NA,NA,NA,NA,NA,NA
"Start Button","canvas.Screen","13_32_0",NA,NA,NA,"response",1362.00299997226,199148.499999952,199143.797,199160.697,200522.699999972,200524.564999971,"2020-07-06T20:17:26.920Z",200544.371,NA,NA,NA,NA,NA,NA,NA,NA,"Start Position","click @Start_Button"
"Mask","canvas.Screen","13_32_1",NA,NA,NA,"timeout",216.562999999995,200525.039999979,200510.928,200544.371,200727.664,200728.994999954,"2020-07-06T20:17:27.124Z",200760.934,NA,NA,NA,NA,NA,NA,NA,NA,NA,NA
"Pre_Manip Exp Trial","canvas.Screen","13_32_2",NA,NA,NA,"response",1109.51099994953,200729.594999983,200727.664,200760.934,201870.44499995,201871.379999968,"2020-07-06T20:17:28.266Z",201878.02,NA,NA,NA,NA,NA,NA,NA,NA,"Respond_Left","click @Response_Left"
"Sequence","flow.Sequence","13_32",NA,NA,NA,"completion",2709.74799994956,199148.359999992,199143.797,199160.697,201870.44499995,201871.69499998,"2020-07-06T20:17:28.267Z",201878.02,NA,NA,NA,NA,NA,NA,NA,NA,NA,NA
"Start Button","canvas.Screen","13_33_0",NA,NA,NA,"response",1107.34999995123,201871.805000002,201861.336,201878.02,202985.369999951,202986.389999976,"2020-07-06T20:17:29.382Z",202994.82,NA,NA,NA,NA,NA,NA,NA,NA,"Start Position","click @Start_Button"
"Mask","canvas.Screen","13_33_1",NA,NA,NA,"timeout",200.24099999998,202986.604999984,202978.268,202994.82,203178.512,203182.334999961,"2020-07-06T20:17:29.577Z",203195.061,NA,NA,NA,NA,NA,NA,NA,NA,NA,NA
"Pre_Manip Exp Trial","canvas.Screen","13_33_2",NA,NA,NA,"response",1053.61399998073,203183.224999986,203178.512,203195.061,204248.674999981,204252.209999948,"2020-07-06T20:17:30.647Z",204278.668,NA,NA,NA,NA,NA,NA,NA,NA,"Respond_Left","click @Response_Left"
"Sequence","flow.Sequence","13_33",NA,NA,NA,"completion",2370.65499998073,201871.774999949,201861.336,201878.02,204248.674999981,204253.984999959,"2020-07-06T20:17:30.649Z",204278.668,NA,NA,NA,NA,NA,NA,NA,NA,NA,NA
"Start Button","canvas.Screen","13_34_0",NA,NA,NA,"response",1178.76199995127,204254.684999993,204245.167,204278.668,205457.429999951,205460.269999981,"2020-07-06T20:17:31.855Z",205478.897,NA,NA,NA,NA,NA,NA,NA,NA,"Start Position","click @Start_Button"
"Mask","canvas.Screen","13_34_1",NA,NA,NA,"timeout",200.02900000001,205461.089999997,205462.217,205478.897,205662.502,205666.18499998,"2020-07-06T20:17:32.061Z",205678.926,NA,NA,NA,NA,NA,NA,NA,NA,NA,NA
"Pre_Manip Exp Trial","canvas.Screen","13_34_2",NA,NA,NA,"response",1268.79399999647,205667.069999967,205662.502,205678.926,206947.719999996,206952.064999961,"2020-07-06T20:17:33.347Z",206979.513,NA,NA,NA,NA,NA,NA,NA,NA,"Respond_Right","click @Response_Right"
"Sequence","flow.Sequence","13_34",NA,NA,NA,"completion",2669.05199999647,204254.434999952,204245.167,204278.668,206947.719999996,206953.874999948,"2020-07-06T20:17:33.349Z",206979.513,NA,NA,NA,NA,NA,NA,NA,NA,NA,NA
"Start Button","canvas.Screen","13_35_0",NA,NA,NA,"response",12048.651999967,206954.51999997,206945.964,206979.513,219028.164999967,219029.184999992,"2020-07-06T20:17:45.424Z",219048.927,NA,NA,NA,NA,NA,NA,NA,NA,"Start Position","click @Start_Button"
"Mask","canvas.Screen","13_35_1",NA,NA,NA,"timeout",216.694000000018,219029.344999988,219015.59,219048.927,219232.399,219237.239999988,"2020-07-06T20:17:45.632Z",219265.621,NA,NA,NA,NA,NA,NA,NA,NA,NA,NA
"Pre_Manip Exp Trial","canvas.Screen","13_35_2",NA,NA,NA,"response",1192.72399999181,219238.079999981,219232.399,219265.621,220458.344999992,220462.089999986,"2020-07-06T20:17:46.857Z",220482.542,NA,NA,NA,NA,NA,NA,NA,NA,"Respond_Left","click @Response_Left"
"Sequence","flow.Sequence","13_35",NA,NA,NA,"completion",13478.8319999918,206954.364999954,206945.964,206979.513,220458.344999992,220464.844999951,"2020-07-06T20:17:46.860Z",220482.542,NA,NA,NA,NA,NA,NA,NA,NA,NA,NA
"Start Button","canvas.Screen","13_36_0",NA,NA,NA,"response",1177.55799997915,220465.544999985,220465.833,220482.542,221660.099999979,221662.659999973,"2020-07-06T20:17:48.058Z",221682.854,NA,NA,NA,NA,NA,NA,NA,NA,"Start Position","click @Start_Button"
"Mask","canvas.Screen","13_36_1",NA,NA,NA,"timeout",200.145000000019,221663.364999986,221649.673,221682.854,221866.505,221868.869999947,"2020-07-06T20:17:48.264Z",221882.999,NA,NA,NA,NA,NA,NA,NA,NA,NA,NA
"Pre_Manip Exp Trial","canvas.Screen","13_36_2",NA,NA,NA,"response",973.025999986392,221869.814999984,221866.505,221882.999,222856.024999986,222858.680000005,"2020-07-06T20:17:49.254Z",222883.296,NA,NA,NA,NA,NA,NA,NA,NA,"Respond_Left","click @Response_Left"
"Sequence","flow.Sequence","13_36",NA,NA,NA,"completion",2373.48299998642,220465.399999986,220465.833,220482.542,222856.024999986,222860.044999979,"2020-07-06T20:17:49.255Z",222883.296,NA,NA,NA,NA,NA,NA,NA,NA,NA,NA
"Start Button","canvas.Screen","13_37_0",NA,NA,NA,"response",1008.16399995526,222860.594999976,222849.767,222883.296,223891.459999955,223894.349999959,"2020-07-06T20:17:50.290Z",223916.741,NA,NA,NA,NA,NA,NA,NA,NA,"Start Position","click @Start_Button"
"Mask","canvas.Screen","13_37_1",NA,NA,NA,"timeout",200.22099999999,223895.19999997,223883.57,223916.741,224100.219,224102.959999989,"2020-07-06T20:17:50.498Z",224116.962,NA,NA,NA,NA,NA,NA,NA,NA,NA,NA
"Pre_Manip Exp Trial","canvas.Screen","13_37_2",NA,NA,NA,"response",1154.75299998076,224103.949999961,224100.219,224116.962,225271.714999981,225273.889999953,"2020-07-06T20:17:51.669Z",225283.778,NA,NA,NA,NA,NA,NA,NA,NA,"Respond_Right","click @Response_Right"
"Sequence","flow.Sequence","13_37",NA,NA,NA,"completion",2388.41899998076,222860.484999954,222849.767,222883.296,225271.714999981,225274.804999994,"2020-07-06T20:17:51.670Z",225283.778,NA,NA,NA,NA,NA,NA,NA,NA,NA,NA
"Start Button","canvas.Screen","13_38_0",NA,NA,NA,"response",1552.24199998792,225275.159999961,225267.417,225283.778,226836.019999988,226839.32499995,"2020-07-06T20:17:53.235Z",226850.849,NA,NA,NA,NA,NA,NA,NA,NA,"Start Position","click @Start_Button"
"Mask","canvas.Screen","13_38_1",NA,NA,NA,"timeout",200.054000000004,226840.269999986,226834.071,226850.849,227034.369,227036.709999957,"2020-07-06T20:17:53.432Z",227050.903,NA,NA,NA,NA,NA,NA,NA,NA,NA,NA
"Pre_Manip Exp Trial","canvas.Screen","13_38_2",NA,NA,NA,"response",1082.41699996445,227037.734999962,227034.369,227050.903,228133.319999964,228137.90999999,"2020-07-06T20:17:54.533Z",228168.045,NA,NA,NA,NA,NA,NA,NA,NA,"Respond_Left","click @Response_Left"
"Sequence","flow.Sequence","13_38",NA,NA,NA,"completion",2849.54199996445,225275.074999954,225267.417,225283.778,228133.319999964,228140.144999954,"2020-07-06T20:17:54.535Z",228168.045,NA,NA,NA,NA,NA,NA,NA,NA,NA,NA
"Start Button","canvas.Screen","13_39_0",NA,NA,NA,"response",2301.24999995893,228140.774999978,228134.364,228168.045,230469.294999959,230473.635000002,"2020-07-06T20:17:56.869Z",230485.124,NA,NA,NA,NA,NA,NA,NA,NA,"Start Position","click @Start_Button"
"Mask","canvas.Screen","13_39_1",NA,NA,NA,"timeout",199.949999999983,230474.489999993,230468.601,230485.124,230668.387,230677.399999986,"2020-07-06T20:17:57.073Z",230685.074,NA,NA,NA,NA,NA,NA,NA,NA,NA,NA
"Pre_Manip Exp Trial","canvas.Screen","13_39_2",NA,NA,NA,"response",1183.22599997281,230677.749999973,230668.387,230685.074,231868.299999973,231870.334999985,"2020-07-06T20:17:58.266Z",231885.622,NA,NA,NA,NA,NA,NA,NA,NA,"Respond_Left","click @Response_Left"
"Sequence","flow.Sequence","13_39",NA,NA,NA,"completion",3700.25499997279,228140.614999982,228134.364,228168.045,231868.299999973,231872.02999997,"2020-07-06T20:17:58.267Z",231885.622,NA,NA,NA,NA,NA,NA,NA,NA,NA,NA
"Start Button","canvas.Screen","13_40_0",NA,NA,NA,"response",1156.27299997301,231872.699999949,231868.775,231885.622,233041.894999973,233046.014999971,"2020-07-06T20:17:59.441Z",233069.214,NA,NA,NA,NA,NA,NA,NA,NA,"Start Position","click @Start_Button"
"Mask","canvas.Screen","13_40_1",NA,NA,NA,"timeout",201.171000000002,233046.845000004,233035.869,233069.214,233252.692,233256.564999989,"2020-07-06T20:17:59.652Z",233270.385,NA,NA,NA,NA,NA,NA,NA,NA,NA,NA
"Pre_Manip Exp Trial","canvas.Screen","13_40_2",NA,NA,NA,"response",1003.9649999633,233257.459999993,233252.692,233270.385,234274.349999963,234277.925000002,"2020-07-06T20:18:00.673Z",234302.747,NA,NA,NA,NA,NA,NA,NA,NA,"Respond_Left","click @Response_Left"
"Sequence","flow.Sequence","13_40",NA,NA,NA,"completion",2388.7279999633,231872.594999964,231868.775,231885.622,234274.349999963,234279.699999955,"2020-07-06T20:18:00.675Z",234302.747,NA,NA,NA,NA,NA,NA,NA,NA,NA,NA
"Start Button","canvas.Screen","13_41_0",NA,NA,NA,"response",1568.39799998279,234280.310000002,234269.25,234302.747,235871.144999983,235875.059999991,"2020-07-06T20:18:02.270Z",235886.496,NA,NA,NA,NA,NA,NA,NA,NA,"Start Position","click @Start_Button"
"Mask","canvas.Screen","13_41_1",NA,NA,NA,"timeout",199.918999999994,235875.904999964,235869.785,235886.496,236069.758,236070.929999987,"2020-07-06T20:18:02.466Z",236086.415,NA,NA,NA,NA,NA,NA,NA,NA,NA,NA
"Pre_Manip Exp Trial","canvas.Screen","13_41_2",NA,NA,NA,"response",1108.48500000223,236071.484999964,236069.758,236086.415,237194.900000002,237195.854999998,"2020-07-06T20:18:03.591Z",237203.51,NA,NA,NA,NA,NA,NA,NA,NA,"Respond_Left","click @Response_Left"
"Sequence","flow.Sequence","13_41",NA,NA,NA,"completion",2892.15300000223,234280.154999986,234269.25,234302.747,237194.900000002,237196.169999952,"2020-07-06T20:18:03.591Z",237203.51,NA,NA,NA,NA,NA,NA,NA,NA,NA,NA
"Start Button","canvas.Screen","13_42_0",NA,NA,NA,"response",1276.17499996931,237196.279999975,237186.804,237203.51,238479.684999969,238482.889999985,"2020-07-06T20:18:04.878Z",238503.79,NA,NA,NA,NA,NA,NA,NA,NA,"Start Position","click @Start_Button"
"Mask","canvas.Screen","13_42_1",NA,NA,NA,"timeout",200.078999999998,238483.849999961,238470.489,238503.79,238687.173,238690.444999957,"2020-07-06T20:18:05.086Z",238703.869,NA,NA,NA,NA,NA,NA,NA,NA,NA,NA
"Pre_Manip Exp Trial","canvas.Screen","13_42_2",NA,NA,NA,"response",1021.55099997338,238692.114999983,238687.173,238703.869,239725.419999973,239728.494999988,"2020-07-06T20:18:06.124Z",239754.171,NA,NA,NA,NA,NA,NA,NA,NA,"Respond_Left","click @Response_Left"
"Sequence","flow.Sequence","13_42",NA,NA,NA,"completion",2521.90999997337,237196.254999959,237186.804,237203.51,239725.419999973,239730.189999973,"2020-07-06T20:18:06.125Z",239754.171,NA,NA,NA,NA,NA,NA,NA,NA,NA,NA
"Start Button","canvas.Screen","13_43_0",NA,NA,NA,"response",1407.47899996545,239730.859999952,239720.874,239754.171,241161.649999965,241164.639999974,"2020-07-06T20:18:07.560Z",241188.894,NA,NA,NA,NA,NA,NA,NA,NA,"Start Position","click @Start_Button"
"Mask","canvas.Screen","13_43_1",NA,NA,NA,"timeout",198.981,241165.500000003,241154.307,241188.894,241371.436,241373.944999999,"2020-07-06T20:18:07.769Z",241387.875,NA,NA,NA,NA,NA,NA,NA,NA,NA,NA
"Pre_Manip Exp Trial","canvas.Screen","13_43_2",NA,NA,NA,"response",1200.0049999482,241374.829999986,241371.436,241387.875,242587.879999948,242588.934999949,"2020-07-06T20:18:08.984Z",242604.795,NA,NA,NA,NA,NA,NA,NA,NA,"Respond_Left","click @Response_Left"
"Sequence","flow.Sequence","13_43",NA,NA,NA,"completion",2833.7089999482,239730.699999956,239720.874,239754.171,242587.879999948,242589.304999972,"2020-07-06T20:18:08.985Z",242604.795,NA,NA,NA,NA,NA,NA,NA,NA,NA,NA
"Start Button","canvas.Screen","13_44_0",NA,NA,NA,"response",1230.36499995869,242589.424999955,242588.11,242604.795,243835.159999959,243837.60499995,"2020-07-06T20:18:10.233Z",243855.104,NA,NA,NA,NA,NA,NA,NA,NA,"Start Position","click @Start_Button"
"Mask","canvas.Screen","13_44_1",NA,NA,NA,"timeout",200.289000000019,243838.300000003,243838.465,243855.104,244038.718,244041.729999997,"2020-07-06T20:18:10.437Z",244055.393,NA,NA,NA,NA,NA,NA,NA,NA,NA,NA
"Pre_Manip Exp Trial","canvas.Screen","13_44_2",NA,NA,NA,"response",1042.02199996743,244042.424999992,244038.718,244055.393,245097.414999967,245100.514999998,"2020-07-06T20:18:11.496Z",245122.186,NA,NA,NA,NA,NA,NA,NA,NA,"Respond_Left","click @Response_Left"
"Sequence","flow.Sequence","13_44",NA,NA,NA,"completion",2492.61999996743,242589.394999959,242588.11,242604.795,245097.414999967,245102.369999979,"2020-07-06T20:18:11.498Z",245122.186,NA,NA,NA,NA,NA,NA,NA,NA,NA,NA
"Start Button","canvas.Screen","13_45_0",NA,NA,NA,"response",1126.94399995287,245103.02499996,245088.775,245122.186,246249.129999953,246251.984999981,"2020-07-06T20:18:12.647Z",246272.562,NA,NA,NA,NA,NA,NA,NA,NA,"Start Position","click @Start_Button"
"Mask","canvas.Screen","13_45_1",NA,NA,NA,"timeout",199.929999999993,246252.814999956,246238.896,246272.562,246455.958,246458.064999955,"2020-07-06T20:18:12.853Z",246472.492,NA,NA,NA,NA,NA,NA,NA,NA,NA,NA
"Pre_Manip Exp Trial","canvas.Screen","13_45_2",NA,NA,NA,"response",1198.3229999613,246458.884999971,246455.958,246472.492,247670.814999961,247675.149999966,"2020-07-06T20:18:14.070Z",247706.046,NA,NA,NA,NA,NA,NA,NA,NA,"Respond_Right","click @Response_Right"
"Sequence","flow.Sequence","13_45",NA,NA,NA,"completion",2548.62899996131,245102.859999985,245088.775,245122.186,247670.814999961,247677.694999962,"2020-07-06T20:18:14.073Z",247706.046,NA,NA,NA,NA,NA,NA,NA,NA,NA,NA
"Start Button","canvas.Screen","13_46_0",NA,NA,NA,"response",1094.24899996453,247678.350000002,247672.821,247706.046,248800.294999965,248803.099999961,"2020-07-06T20:18:15.198Z",248822.987,NA,NA,NA,NA,NA,NA,NA,NA,"Start Position","click @Start_Button"
"Mask","canvas.Screen","13_46_1",NA,NA,NA,"timeout",199.986999999994,248804.015000002,248789.559,248822.987,249006.296,249007.619999989,"2020-07-06T20:18:15.403Z",249022.974,NA,NA,NA,NA,NA,NA,NA,NA,NA,NA
"Pre_Manip Exp Trial","canvas.Screen","13_46_2",NA,NA,NA,"response",1590.39599997731,249007.920000004,249006.296,249022.974,250613.369999977,250616.739999969,"2020-07-06T20:18:17.012Z",250640.159,NA,NA,NA,NA,NA,NA,NA,NA,"Respond_Right","click @Response_Right"
"Sequence","flow.Sequence","13_46",NA,NA,NA,"completion",2907.32399997729,247678.189999948,247672.821,247706.046,250613.369999977,250618.539999996,"2020-07-06T20:18:17.014Z",250640.159,NA,NA,NA,NA,NA,NA,NA,NA,NA,NA
"Start Button","canvas.Screen","13_47_0",NA,NA,NA,"response",1264.0909999632,250619.389999949,250606.666,250640.159,251904.249999963,251906.654999999,"2020-07-06T20:18:18.302Z",251923.809,NA,NA,NA,NA,NA,NA,NA,NA,"Start Position","click @Start_Button"
"Mask","canvas.Screen","13_47_1",NA,NA,NA,"timeout",200.051999999996,251907.909999951,251907.09,251923.809,252107.225,252109.319999989,"2020-07-06T20:18:18.505Z",252123.861,NA,NA,NA,NA,NA,NA,NA,NA,NA,NA
"Pre_Manip Exp Trial","canvas.Screen","13_47_2",NA,NA,NA,"response",1198.8689999562,252110.159999982,252107.225,252123.861,253322.729999956,253323.864999984,"2020-07-06T20:18:19.719Z",253340.796,NA,NA,NA,NA,NA,NA,NA,NA,"Respond_Right","click @Response_Right"
"Sequence","flow.Sequence","13_47",NA,NA,NA,"completion",2682.5709999562,250619.044999999,250606.666,250640.159,253322.729999956,253324.314999976,"2020-07-06T20:18:19.720Z",253340.796,NA,NA,NA,NA,NA,NA,NA,NA,NA,NA
"Start Button","canvas.Screen","13_48_0",NA,NA,NA,"response",1244.84899998465,253324.444999977,253324.071,253340.796,254585.644999985,254588.549999986,"2020-07-06T20:18:20.984Z",254607.751,NA,NA,NA,NA,NA,NA,NA,NA,"Start Position","click @Start_Button"
"Mask","canvas.Screen","13_48_1",NA,NA,NA,"timeout",200.078999999998,254589.429999993,254574.548,254607.751,254791.375,254794.799999974,"2020-07-06T20:18:21.190Z",254807.83,NA,NA,NA,NA,NA,NA,NA,NA,NA,NA
"Pre_Manip Exp Trial","canvas.Screen","13_48_2",NA,NA,NA,"response",1227.68999997582,254795.554999961,254791.375,254807.83,256035.519999976,256038.744999969,"2020-07-06T20:18:22.434Z",256058.402,NA,NA,NA,NA,NA,NA,NA,NA,"Respond_Right","click @Response_Right"
"Sequence","flow.Sequence","13_48",NA,NA,NA,"completion",2694.7239999758,253324.410000001,253324.071,253340.796,256035.519999976,256040.329999989,"2020-07-06T20:18:22.436Z",256058.402,NA,NA,NA,NA,NA,NA,NA,NA,NA,NA
"Start Button","canvas.Screen","13_49_0",NA,NA,NA,"response",1245.79299997515,256040.964999993,256041.319,256058.402,257304.194999975,257307.089999958,"2020-07-06T20:18:23.702Z",257325.104,NA,NA,NA,NA,NA,NA,NA,NA,"Start Position","click @Start_Button"
"Mask","canvas.Screen","13_49_1",NA,NA,NA,"timeout",200.171000000002,257307.929999952,257308.584,257325.104,257508.679,257510.595,"2020-07-06T20:18:23.906Z",257525.275,NA,NA,NA,NA,NA,NA,NA,NA,NA,NA
"Pre_Manip Exp Trial","canvas.Screen","13_49_2",NA,NA,NA,"response",1109.8349999738,257511.594999989,257508.679,257525.275,258635.109999974,258641.55,"2020-07-06T20:18:25.037Z",258675.356,NA,NA,NA,NA,NA,NA,NA,NA,"Respond_Left","click @Response_Left"
"Sequence","flow.Sequence","13_49",NA,NA,NA,"completion",2576.70799997379,256040.779999981,256041.319,256058.402,258635.109999974,258646.204999997,"2020-07-06T20:18:25.041Z",258675.356,NA,NA,NA,NA,NA,NA,NA,NA,NA,NA
"Experimental Trials_Pre Manip","flow.Loop","13",NA,NA,NA,"completion",147129.690999974,111482.529999979,111472.181,111505.419,258635.109999974,258646.639999992,"2020-07-06T20:18:25.042Z",258675.356,NA,NA,NA,NA,NA,NA,NA,NA,NA,NA
"Speed_Manip Instructions","html.Page","14",NA,NA,"","form submission",3635.63899994889,258646.904999972,258642.203,258675.356,262310.994999949,262312.184999988,"2020-07-06T20:18:28.707Z",262342.956,NA,NA,NA,NA,NA,NA,NA,NA,NA,NA
"Accuracy_Manip Instructions","html.Page","15",NA,NA,NA,"skipped",NA,262312.879999983,NA,NA,262310.994999949,262313.534999965,"2020-07-06T20:18:28.709Z",262342.956,NA,NA,NA,NA,NA,NA,NA,NA,NA,NA
"Start Button","canvas.Screen","16_0_0",NA,NA,NA,"response",1270.53899999778,262314.324999985,262293.22,262342.956,263613.494999998,263617.154999985,"2020-07-06T20:18:30.012Z",263626.716,NA,NA,NA,NA,NA,NA,NA,NA,"Start Position","click @Start_Button"
"Mask","canvas.Screen","16_0_1",NA,NA,NA,"timeout",200.023999999976,263618.034999992,263609.968,263626.716,263810.261,263813.269999984,"2020-07-06T20:18:30.209Z",263826.74,NA,NA,NA,NA,NA,NA,NA,NA,NA,NA
"Post_Manip Exp Trial","canvas.Screen","16_0_2",NA,NA,NA,"response",1264.05499996734,263813.964999979,263810.261,263826.74,265090.794999967,265091.784999997,"2020-07-06T20:18:31.487Z",265110.347,NA,NA,NA,NA,NA,NA,NA,NA,"Respond_Right","click @Response_Right"
"Sequence","flow.Sequence","16_0",NA,NA,NA,"completion",2747.83899996732,262314.205000002,262293.22,262342.956,265090.794999967,265092.104999989,"2020-07-06T20:18:31.487Z",265110.347,NA,NA,NA,NA,NA,NA,NA,NA,NA,NA
"Start Button","canvas.Screen","16_1_0",NA,NA,NA,"response",1156.23299999587,265092.239999969,265077.278,265110.347,266266.579999996,266269.424999948,"2020-07-06T20:18:32.665Z",266277.395,NA,NA,NA,NA,NA,NA,NA,NA,"Start Position","click @Start_Button"
"Mask","canvas.Screen","16_1_1",NA,NA,NA,"timeout",200.235999999975,266270.339999988,266260.761,266277.395,266460.742,266462.199999951,"2020-07-06T20:18:32.857Z",266477.631,NA,NA,NA,NA,NA,NA,NA,NA,NA,NA
"Post_Manip Exp Trial","canvas.Screen","16_1_2",NA,NA,NA,"response",1158.62899999932,266462.709999993,266460.742,266477.631,267636.259999999,267639.994999976,"2020-07-06T20:18:34.035Z",267661.233,NA,NA,NA,NA,NA,NA,NA,NA,"Respond_Right","click @Response_Right"
"Sequence","flow.Sequence","16_1",NA,NA,NA,"completion",2525.9129999993,265092.204999994,265077.278,265110.347,267636.259999999,267641.68999996,"2020-07-06T20:18:34.037Z",267661.233,NA,NA,NA,NA,NA,NA,NA,NA,NA,NA
"Start Button","canvas.Screen","16_2_0",NA,NA,NA,"response",1178.62699994911,267642.35499996,267627.575,267661.233,268839.859999949,268842.649999948,"2020-07-06T20:18:35.238Z",268861.339,NA,NA,NA,NA,NA,NA,NA,NA,"Start Position","click @Start_Button"
"Mask","canvas.Screen","16_2_1",NA,NA,NA,"timeout",200.698000000033,268843.514999957,268828.143,268861.339,269044.841,269049.934999959,"2020-07-06T20:18:35.445Z",269062.037,NA,NA,NA,NA,NA,NA,NA,NA,NA,NA
"Post_Manip Exp Trial","canvas.Screen","16_2_2",NA,NA,NA,"response",1143.38299995475,269050.77999999,269044.841,269062.037,270205.419999955,270208.944999962,"2020-07-06T20:18:36.604Z",270228.366,NA,NA,NA,NA,NA,NA,NA,NA,"Respond_Right","click @Response_Right"
"Sequence","flow.Sequence","16_2",NA,NA,NA,"completion",2544.18699995475,267642.185000004,267627.575,267661.233,270205.419999955,270210.614999989,"2020-07-06T20:18:36.606Z",270228.366,NA,NA,NA,NA,NA,NA,NA,NA,NA,NA
"Start Button","canvas.Screen","16_3_0",NA,NA,NA,"response",1046.51399998268,270211.229999957,270211.779,270228.366,271274.879999983,271277.824999997,"2020-07-06T20:18:37.673Z",271295.212,NA,NA,NA,NA,NA,NA,NA,NA,"Start Position","click @Start_Button"
"Mask","canvas.Screen","16_3_1",NA,NA,NA,"timeout",199.994999999995,271279.474999988,271278.707,271295.212,271478.605,271479.27999997,"2020-07-06T20:18:37.875Z",271495.207,NA,NA,NA,NA,NA,NA,NA,NA,NA,NA
"Post_Manip Exp Trial","canvas.Screen","16_3_2",NA,NA,NA,"response",1121.90299999196,271479.469999962,271478.605,271495.207,272617.109999992,272618.194999988,"2020-07-06T20:18:39.013Z",272628.976,NA,NA,NA,NA,NA,NA,NA,NA,"Respond_Right","click @Response_Right"
"Sequence","flow.Sequence","16_3",NA,NA,NA,"completion",2388.74399999197,270211.074999999,270211.779,270228.366,272617.109999992,272618.614999985,"2020-07-06T20:18:39.014Z",272628.976,NA,NA,NA,NA,NA,NA,NA,NA,NA,NA
"Start Button","canvas.Screen","16_4_0",NA,NA,NA,"response",1049.7790000008,272618.770000001,272612.343,272628.976,273678.755000001,273679.869999993,"2020-07-06T20:18:40.075Z",273695.813,NA,NA,NA,NA,NA,NA,NA,NA,"Start Position","click @Start_Button"
"Mask","canvas.Screen","16_4_1",NA,NA,NA,"timeout",200.099999999977,273680.099999998,273679.185,273695.813,273879.433,273883.399999992,"2020-07-06T20:18:40.279Z",273895.913,NA,NA,NA,NA,NA,NA,NA,NA,NA,NA
"Post_Manip Exp Trial","canvas.Screen","16_4_2",NA,NA,NA,"response",1255.30199996167,273884.294999996,273879.433,273895.913,275151.214999962,275154.364999966,"2020-07-06T20:18:41.550Z",275162.962,NA,NA,NA,NA,NA,NA,NA,NA,"Respond_Left","click @Response_Left"
"Sequence","flow.Sequence","16_4",NA,NA,NA,"completion",2522.23899996164,272618.734999967,272612.343,272628.976,275151.214999962,275155.994999979,"2020-07-06T20:18:41.551Z",275162.962,NA,NA,NA,NA,NA,NA,NA,NA,NA,NA
"Start Button","canvas.Screen","16_5_0",NA,NA,NA,"response",1227.262999981,275156.625000003,275146.244,275162.962,276390.224999981,276393.084999989,"2020-07-06T20:18:42.788Z",276396.565,NA,NA,NA,NA,NA,NA,NA,NA,"Start Position","click @Start_Button"
"Mask","canvas.Screen","16_5_1",NA,NA,NA,"timeout",200.032000000007,276393.999999971,276379.866,276396.565,276580.035,276582.02999999,"2020-07-06T20:18:42.977Z",276596.597,NA,NA,NA,NA,NA,NA,NA,NA,NA,NA
"Post_Manip Exp Trial","canvas.Screen","16_5_2",NA,NA,NA,"response",924.797999988834,276582.839999988,276580.035,276596.597,277521.394999989,277524.589999986,"2020-07-06T20:18:43.920Z",277546.887,NA,NA,NA,NA,NA,NA,NA,NA,"Respond_Left","click @Response_Left"
"Sequence","flow.Sequence","16_5",NA,NA,NA,"completion",2358.43299998884,275156.469999987,275146.244,275162.962,277521.394999989,277528.309999965,"2020-07-06T20:18:43.924Z",277546.887,NA,NA,NA,NA,NA,NA,NA,NA,NA,NA
"Start Button","canvas.Screen","16_6_0",NA,NA,NA,"response",1003.44299999822,277529.269999999,277530.185,277546.887,278550.329999998,278553.329999966,"2020-07-06T20:18:44.949Z",278630.356,NA,NA,NA,NA,NA,NA,NA,NA,"Start Position","click @Start_Button"
"Mask","canvas.Screen","16_6_1",NA,NA,NA,"timeout",200.143999999971,278554.09999995,278546.993,278630.356,278813.871,278815.849999955,"2020-07-06T20:18:45.211Z",278830.5,NA,NA,NA,NA,NA,NA,NA,NA,NA,NA
"Post_Manip Exp Trial","canvas.Screen","16_6_2",NA,NA,NA,"response",1347.0599999819,278816.774999956,278813.871,278830.5,280177.559999982,280180.614999961,"2020-07-06T20:18:46.576Z",280197.551,NA,NA,NA,NA,NA,NA,NA,NA,"Respond_Left","click @Response_Left"
"Sequence","flow.Sequence","16_6",NA,NA,NA,"completion",2630.67299998191,277528.879999998,277530.185,277546.887,280177.559999982,280182.93499999,"2020-07-06T20:18:46.578Z",280197.551,NA,NA,NA,NA,NA,NA,NA,NA,NA,NA
"Start Button","canvas.Screen","16_7_0",NA,NA,NA,"response",1172.39899996389,280184.019999986,280180.761,280197.551,281369.949999964,281373.039999977,"2020-07-06T20:18:47.768Z",281381.163,NA,NA,NA,NA,NA,NA,NA,NA,"Start Position","click @Start_Button"
"Mask","canvas.Screen","16_7_1",NA,NA,NA,"timeout",200.021999999997,281373.87499999,281364.363,281381.163,281564.589,281566.629999958,"2020-07-06T20:18:47.962Z",281581.185,NA,NA,NA,NA,NA,NA,NA,NA,NA,NA
"Post_Manip Exp Trial","canvas.Screen","16_7_2",NA,NA,NA,"response",1522.23499999946,281567.515000002,281564.589,281581.185,283103.419999999,283107.254999981,"2020-07-06T20:18:49.503Z",283115.018,NA,NA,NA,NA,NA,NA,NA,NA,"Respond_Left","click @Response_Left"
"Sequence","flow.Sequence","16_7",NA,NA,NA,"completion",2905.86899999948,280183.789999981,280180.761,280197.551,283103.419999999,283108.929999988,"2020-07-06T20:18:49.504Z",283115.018,NA,NA,NA,NA,NA,NA,NA,NA,NA,NA
"Start Button","canvas.Screen","16_8_0",NA,NA,NA,"response",1204.30699998949,283109.539999976,283098.241,283115.018,284319.324999989,284320.144999947,"2020-07-06T20:18:50.715Z",284365.122,NA,NA,NA,NA,NA,NA,NA,NA,"Start Position","click @Start_Button"
"Mask","canvas.Screen","16_8_1",NA,NA,NA,"timeout",200.140000000014,284320.314999961,284315.281,284365.122,284548.789,284550.934999948,"2020-07-06T20:18:50.946Z",284565.262,NA,NA,NA,NA,NA,NA,NA,NA,NA,NA
"Post_Manip Exp Trial","canvas.Screen","16_8_2",NA,NA,NA,"response",973.207999970415,284551.775,284548.789,284565.262,285538.46999997,285541.794999968,"2020-07-06T20:18:51.937Z",285548.844,NA,NA,NA,NA,NA,NA,NA,NA,"Respond_Left","click @Response_Left"
"Sequence","flow.Sequence","16_8",NA,NA,NA,"completion",2423.45199997042,283109.389999998,283098.241,283115.018,285538.46999997,285543.789999967,"2020-07-06T20:18:51.939Z",285548.844,NA,NA,NA,NA,NA,NA,NA,NA,NA,NA
"Start Button","canvas.Screen","16_9_0",NA,NA,NA,"response",1285.13099995774,285544.574999949,285532.275,285548.844,286833.974999958,286834.869999962,"2020-07-06T20:18:53.230Z",286849.139,NA,NA,NA,NA,NA,NA,NA,NA,"Start Position","click @Start_Button"
"Mask","canvas.Screen","16_9_1",NA,NA,NA,"timeout",199.967999999993,286835.124999983,286832.371,286849.139,287032.46,287033.609999984,"2020-07-06T20:18:53.429Z",287049.107,NA,NA,NA,NA,NA,NA,NA,NA,NA,NA
"Post_Manip Exp Trial","canvas.Screen","16_9_2",NA,NA,NA,"response",1192.32299999456,287033.799999976,287032.46,287049.107,288241.429999995,288244.859999977,"2020-07-06T20:18:54.640Z",288266.311,NA,NA,NA,NA,NA,NA,NA,NA,"Respond_Right","click @Response_Right"
"Sequence","flow.Sequence","16_9",NA,NA,NA,"completion",2692.5859999946,285544.279999973,285532.275,285548.844,288241.429999995,288246.439999959,"2020-07-06T20:18:54.642Z",288266.311,NA,NA,NA,NA,NA,NA,NA,NA,NA,NA
"Start Button","canvas.Screen","16_10_0",NA,NA,NA,"response",1156.59899996477,288247.044999967,288232.845,288266.311,289422.909999965,289425.315,"2020-07-06T20:18:55.821Z",289433.173,NA,NA,NA,NA,NA,NA,NA,NA,"Start Position","click @Start_Button"
"Mask","canvas.Screen","16_10_1",NA,NA,NA,"timeout",216.741999999969,289425.974999962,289416.53,289433.173,289616.491,289619.019999984,"2020-07-06T20:18:56.014Z",289649.915,NA,NA,NA,NA,NA,NA,NA,NA,NA,NA
"Post_Manip Exp Trial","canvas.Screen","16_10_2",NA,NA,NA,"response",1055.4249999859,289620.10499998,289616.491,289649.915,290705.339999986,290709.039999987,"2020-07-06T20:18:57.104Z",290733.376,NA,NA,NA,NA,NA,NA,NA,NA,"Respond_Left","click @Response_Left"
"Sequence","flow.Sequence","16_10",NA,NA,NA,"completion",2439.02899998589,288246.899999969,288232.845,288266.311,290705.339999986,290711.794999952,"2020-07-06T20:18:57.107Z",290733.376,NA,NA,NA,NA,NA,NA,NA,NA,NA,NA
"Start Button","canvas.Screen","16_11_0",NA,NA,NA,"response",1044.66899998457,290712.939999998,290700.103,290733.376,291778.044999985,291780.555000005,"2020-07-06T20:18:58.176Z",291800.428,NA,NA,NA,NA,NA,NA,NA,NA,"Start Position","click @Start_Button"
"Mask","canvas.Screen","16_11_1",NA,NA,NA,"timeout",200.082999999984,291781.444999971,291767.117,291800.428,291983.914,291985.534999985,"2020-07-06T20:18:58.381Z",292000.511,NA,NA,NA,NA,NA,NA,NA,NA,NA,NA
"Post_Manip Exp Trial","canvas.Screen","16_11_2",NA,NA,NA,"response",942.283999980835,291986.09999998,291983.914,292000.511,292942.794999981,292943.979999982,"2020-07-06T20:18:59.339Z",292950.575,NA,NA,NA,NA,NA,NA,NA,NA,"Respond_Left","click @Response_Left"
"Sequence","flow.Sequence","16_11",NA,NA,NA,"completion",2209.41899998084,290712.644999963,290700.103,290733.376,292942.794999981,292944.799999997,"2020-07-06T20:18:59.340Z",292950.575,NA,NA,NA,NA,NA,NA,NA,NA,NA,NA
"Start Button","canvas.Screen","16_12_0",NA,NA,NA,"response",1108.25499999447,292944.999999949,292934.117,292950.575,294058.829999994,294059.674999968,"2020-07-06T20:19:00.455Z",294067.595,NA,NA,NA,NA,NA,NA,NA,NA,"Start Position","click @Start_Button"
"Mask","canvas.Screen","16_12_1",NA,NA,NA,"timeout",200.046000000031,294059.840000002,294051.012,294067.595,294251.064,294253.099999973,"2020-07-06T20:19:00.648Z",294267.641,NA,NA,NA,NA,NA,NA,NA,NA,NA,NA
"Post_Manip Exp Trial","canvas.Screen","16_12_2",NA,NA,NA,"response",980.848999969021,294253.929999948,294251.064,294267.641,295248.489999969,295252.274999977,"2020-07-06T20:19:01.648Z",295267.958,NA,NA,NA,NA,NA,NA,NA,NA,"Respond_Left","click @Response_Left"
"Sequence","flow.Sequence","16_12",NA,NA,NA,"completion",2297.91499996901,292944.954999955,292934.117,292950.575,295248.489999969,295254.829999991,"2020-07-06T20:19:01.650Z",295267.958,NA,NA,NA,NA,NA,NA,NA,NA,NA,NA
"Start Button","canvas.Screen","16_13_0",NA,NA,NA,"response",1132.60199998005,295255.459999957,295251.271,295267.958,296400.55999998,296405.79999995,"2020-07-06T20:19:02.801Z",296435.018,NA,NA,NA,NA,NA,NA,NA,NA,"Start Position","click @Start_Button"
"Mask","canvas.Screen","16_13_1",NA,NA,NA,"timeout",200.17300000001,296406.829999993,296401.639,296435.018,296618.39,296621.119999967,"2020-07-06T20:19:03.016Z",296635.191,NA,NA,NA,NA,NA,NA,NA,NA,NA,NA
"Post_Manip Exp Trial","canvas.Screen","16_13_2",NA,NA,NA,"response",1124.23899997643,296621.950000001,296618.39,296635.191,297759.429999976,297762.98,"2020-07-06T20:19:04.158Z",297768.597,NA,NA,NA,NA,NA,NA,NA,NA,"Respond_Right","click @Response_Right"
"Sequence","flow.Sequence","16_13",NA,NA,NA,"completion",2491.47199997643,295255.304999999,295251.271,295267.958,297759.429999976,297764.63999995,"2020-07-06T20:19:04.160Z",297768.597,NA,NA,NA,NA,NA,NA,NA,NA,NA,NA
"Start Button","canvas.Screen","16_14_0",NA,NA,NA,"response",1170.14299995411,297765.354999981,297751.986,297768.597,298938.739999954,298941.974999965,"2020-07-06T20:19:05.337Z",298952.209,NA,NA,NA,NA,NA,NA,NA,NA,"Start Position","click @Start_Button"
"Mask","canvas.Screen","16_14_1",NA,NA,NA,"timeout",200.001000000047,298942.784999963,298935.644,298952.209,299135.666,299138.174999971,"2020-07-06T20:19:05.533Z",299152.21,NA,NA,NA,NA,NA,NA,NA,NA,NA,NA
"Post_Manip Exp Trial","canvas.Screen","16_14_2",NA,NA,NA,"response",929.184999986493,299139.135000005,299135.666,299152.21,300081.394999987,300084.394999954,"2020-07-06T20:19:06.480Z",300102.406,NA,NA,NA,NA,NA,NA,NA,NA,"Respond_Left","click @Response_Left"
"Sequence","flow.Sequence","16_14",NA,NA,NA,"completion",2312.79799998651,297765.199999965,297751.986,297768.597,300081.394999987,300086.509999994,"2020-07-06T20:19:06.482Z",300102.406,NA,NA,NA,NA,NA,NA,NA,NA,NA,NA
"Start Button","canvas.Screen","16_15_0",NA,NA,NA,"response",1051.72899996064,300087.359999947,300085.887,300102.406,301154.134999961,301157.999999996,"2020-07-06T20:19:07.553Z",301186.008,NA,NA,NA,NA,NA,NA,NA,NA,"Start Position","click @Start_Button"
"Mask","canvas.Screen","16_15_1",NA,NA,NA,"timeout",200.042000000016,301158.829999971,301152.53,301186.008,301369.672,301373.149999999,"2020-07-06T20:19:07.768Z",301386.05,NA,NA,NA,NA,NA,NA,NA,NA,NA,NA
"Post_Manip Exp Trial","canvas.Screen","16_15_2",NA,NA,NA,"response",980.16499998729,301373.994999973,301369.672,301386.05,302366.214999987,302367.534999968,"2020-07-06T20:19:08.763Z",302386.433,NA,NA,NA,NA,NA,NA,NA,NA,"Respond_Left","click @Response_Left"
"Sequence","flow.Sequence","16_15",NA,NA,NA,"completion",2263.80899998726,300087.199999951,300085.887,300102.406,302366.214999987,302368.159999955,"2020-07-06T20:19:08.763Z",302386.433,NA,NA,NA,NA,NA,NA,NA,NA,NA,NA
"Start Button","canvas.Screen","16_16_0",NA,NA,NA,"response",1420.19199996832,302368.434999953,302353.043,302386.433,303806.624999968,303809.724999999,"2020-07-06T20:19:10.205Z",303836.837,NA,NA,NA,NA,NA,NA,NA,NA,"Start Position","click @Start_Button"
"Mask","canvas.Screen","16_16_1",NA,NA,NA,"timeout",200.053000000014,303810.539999977,303803.305,303836.837,304020.281,304023.779999989,"2020-07-06T20:19:10.419Z",304036.89,NA,NA,NA,NA,NA,NA,NA,NA,NA,NA
"Post_Manip Exp Trial","canvas.Screen","16_16_2",NA,NA,NA,"response",1070.81999995292,304024.745000002,304020.281,304036.89,305107.709999953,305111.684999953,"2020-07-06T20:19:11.507Z",305120.428,NA,NA,NA,NA,NA,NA,NA,NA,"Respond_Right","click @Response_Right"
"Sequence","flow.Sequence","16_16",NA,NA,NA,"completion",2721.27699995291,302368.329999968,302353.043,302386.433,305107.709999953,305113.964999968,"2020-07-06T20:19:11.509Z",305120.428,NA,NA,NA,NA,NA,NA,NA,NA,NA,NA
"Start Button","canvas.Screen","16_17_0",NA,NA,NA,"response",1412.82699995843,305114.894999948,305103.491,305120.428,306533.254999958,306536.08999995,"2020-07-06T20:19:12.931Z",306554.035,NA,NA,NA,NA,NA,NA,NA,NA,"Start Position","click @Start_Button"
"Mask","canvas.Screen","16_17_1",NA,NA,NA,"timeout",200.052000000025,306536.930000002,306537.497,306554.035,306737.582,306740.2,"2020-07-06T20:19:13.135Z",306754.087,NA,NA,NA,NA,NA,NA,NA,NA,NA,NA
"Post_Manip Exp Trial","canvas.Screen","16_17_2",NA,NA,NA,"response",1097.35799997841,306741.039999994,306737.582,306754.087,307851.444999978,307855.515000003,"2020-07-06T20:19:14.251Z",307871.352,NA,NA,NA,NA,NA,NA,NA,NA,"Respond_Right","click @Response_Right"
"Sequence","flow.Sequence","16_17",NA,NA,NA,"completion",2731.0169999784,305114.659999963,305103.491,305120.428,307851.444999978,307857.709999953,"2020-07-06T20:19:14.253Z",307871.352,NA,NA,NA,NA,NA,NA,NA,NA,NA,NA
"Start Button","canvas.Screen","16_18_0",NA,NA,NA,"response",1110.06299998745,307858.38999995,307854.36,307871.352,308981.414999987,308984.124999959,"2020-07-06T20:19:15.379Z",309004.665,NA,NA,NA,NA,NA,NA,NA,NA,"Start Position","click @Start_Button"
"Mask","canvas.Screen","16_18_1",NA,NA,NA,"timeout",200.118000000017,308984.694999992,308971.403,309004.665,309188.117,309190.769999987,"2020-07-06T20:19:15.586Z",309204.783,NA,NA,NA,NA,NA,NA,NA,NA,NA,NA
"Post_Manip Exp Trial","canvas.Screen","16_18_2",NA,NA,NA,"response",1194.41199994722,309191.60999998,309188.117,309204.783,310399.194999947,310402.469999972,"2020-07-06T20:19:16.798Z",310421.717,NA,NA,NA,NA,NA,NA,NA,NA,"Respond_Right","click @Response_Right"
"Sequence","flow.Sequence","16_18",NA,NA,NA,"completion",2527.8429999472,307858.204999997,307854.36,307871.352,310399.194999947,310404.20999995,"2020-07-06T20:19:16.799Z",310421.717,NA,NA,NA,NA,NA,NA,NA,NA,NA,NA
"Start Button","canvas.Screen","16_19_0",NA,NA,NA,"response",1548.39299999474,310406.014999957,310404.884,310421.717,311970.109999995,311973.689999955,"2020-07-06T20:19:18.369Z",311988.759,NA,NA,NA,NA,NA,NA,NA,NA,"Start Position","click @Start_Button"
"Mask","canvas.Screen","16_19_1",NA,NA,NA,"timeout",200.063999999955,311974.754999974,311972.025,311988.759,312172.287,312176.069999987,"2020-07-06T20:19:18.571Z",312188.823,NA,NA,NA,NA,NA,NA,NA,NA,NA,NA
"Post_Manip Exp Trial","canvas.Screen","16_19_2",NA,NA,NA,"response",1496.47699995374,312177.304999961,312172.287,312188.823,313685.299999954,313690.429999959,"2020-07-06T20:19:20.086Z",313722.558,NA,NA,NA,NA,NA,NA,NA,NA,"Respond_Right","click @Response_Right"
"Sequence","flow.Sequence","16_19",NA,NA,NA,"completion",3263.58299995371,310405.619999976,310404.884,310421.717,313685.299999954,313695.414999966,"2020-07-06T20:19:20.091Z",313722.558,NA,NA,NA,NA,NA,NA,NA,NA,NA,NA
"Start Button","canvas.Screen","16_20_0",NA,NA,NA,"response",1189.9419999767,313696.499999962,313689.186,313722.558,314912.499999977,314915.344999987,"2020-07-06T20:19:21.311Z",314939.601,NA,NA,NA,NA,NA,NA,NA,NA,"Start Position","click @Start_Button"
"Mask","canvas.Screen","16_20_1",NA,NA,NA,"timeout",199.922999999952,314916.139999987,314906.019,314939.601,315122.938,315124.87,"2020-07-06T20:19:21.520Z",315139.524,NA,NA,NA,NA,NA,NA,NA,NA,NA,NA
"Post_Manip Exp Trial","canvas.Screen","16_20_2",NA,NA,NA,"response",1020.33099997626,315125.644999964,315122.938,315139.524,316159.854999976,316163.079999969,"2020-07-06T20:19:22.558Z",316173.166,NA,NA,NA,NA,NA,NA,NA,NA,"Respond_Right","click @Response_Right"
"Sequence","flow.Sequence","16_20",NA,NA,NA,"completion",2437.29699997621,313696.224999963,313689.186,313722.558,316159.854999976,316165.06499995,"2020-07-06T20:19:22.560Z",316173.166,NA,NA,NA,NA,NA,NA,NA,NA,NA,NA
"Start Button","canvas.Screen","16_21_0",NA,NA,NA,"response",1115.91899999668,316165.709999972,316156.591,316173.166,317289.084999997,317292.704999971,"2020-07-06T20:19:23.688Z",317306.682,NA,NA,NA,NA,NA,NA,NA,NA,"Start Position","click @Start_Button"
"Mask","canvas.Screen","16_21_1",NA,NA,NA,"timeout",200.141000000003,317293.56999998,317290.195,317306.682,317490.283,317492.71999998,"2020-07-06T20:19:23.888Z",317506.823,NA,NA,NA,NA,NA,NA,NA,NA,NA,NA
"Post_Manip Exp Trial","canvas.Screen","16_21_2",NA,NA,NA,"response",1029.55699994683,317493.564999953,317490.283,317506.823,318536.379999947,318539.619999996,"2020-07-06T20:19:24.935Z",318558.268,NA,NA,NA,NA,NA,NA,NA,NA,"Respond_Right","click @Response_Right"
"Sequence","flow.Sequence","16_21",NA,NA,NA,"completion",2363.21399994678,316165.554999956,316156.591,316173.166,318536.379999947,318542.054999969,"2020-07-06T20:19:24.937Z",318558.268,NA,NA,NA,NA,NA,NA,NA,NA,NA,NA
"Start Button","canvas.Screen","16_22_0",NA,NA,NA,"response",1071.16699995165,318543.114999949,318540.527,318558.268,319629.434999952,319631.654999976,"2020-07-06T20:19:26.027Z",319640.564,NA,NA,NA,NA,NA,NA,NA,NA,"Start Position","click @Start_Button"
"Mask","canvas.Screen","16_22_1",NA,NA,NA,"timeout",200.206000000006,319632.244999986,319623.953,319640.564,319824.107,319825.824999949,"2020-07-06T20:19:26.221Z",319840.77,NA,NA,NA,NA,NA,NA,NA,NA,NA,NA
"Post_Manip Exp Trial","canvas.Screen","16_22_2",NA,NA,NA,"response",1046.2399999476,319826.439999975,319824.107,319840.77,320887.009999948,320889.03999998,"2020-07-06T20:19:27.284Z",320907.851,NA,NA,NA,NA,NA,NA,NA,NA,"Respond_Right","click @Response_Right"
"Sequence","flow.Sequence","16_22",NA,NA,NA,"completion",2328.74199994764,318542.90999996,318540.527,318558.268,320887.009999948,320889.979999978,"2020-07-06T20:19:27.285Z",320907.851,NA,NA,NA,NA,NA,NA,NA,NA,NA,NA
"Start Button","canvas.Screen","16_23_0",NA,NA,NA,"response",1046.38399995374,320890.234999999,320874.277,320907.851,321954.234999954,321955.594999949,"2020-07-06T20:19:28.351Z",321974.626,NA,NA,NA,NA,NA,NA,NA,NA,"Start Position","click @Start_Button"
"Mask","canvas.Screen","16_23_1",NA,NA,NA,"timeout",199.978000000003,321955.944999994,321941.273,321974.626,322158.043,322159.974999959,"2020-07-06T20:19:28.555Z",322174.604,NA,NA,NA,NA,NA,NA,NA,NA,NA,NA
"Post_Manip Exp Trial","canvas.Screen","16_23_2",NA,NA,NA,"response",1031.84099995979,322160.664999974,322158.043,322174.604,323206.44499996,323211.34499996,"2020-07-06T20:19:29.607Z",323241.62,NA,NA,NA,NA,NA,NA,NA,NA,"Respond_Right","click @Response_Right"
"Sequence","flow.Sequence","16_23",NA,NA,NA,"completion",2298.59399995976,320890.17499995,320874.277,320907.851,323206.44499996,323212.949999957,"2020-07-06T20:19:29.608Z",323241.62,NA,NA,NA,NA,NA,NA,NA,NA,NA,NA
"Start Button","canvas.Screen","16_24_0",NA,NA,NA,"response",1710.06499997817,323213.560000004,323208.236,323241.62,324951.684999978,324955.064999987,"2020-07-06T20:19:31.350Z",324975.335,NA,NA,NA,NA,NA,NA,NA,NA,"Start Position","click @Start_Button"
"Mask","canvas.Screen","16_24_1",NA,NA,NA,"timeout",200.032000000007,324955.909999961,324941.996,324975.335,325158.85,325160.789999994,"2020-07-06T20:19:31.556Z",325175.367,NA,NA,NA,NA,NA,NA,NA,NA,NA,NA
"Post_Manip Exp Trial","canvas.Screen","16_24_2",NA,NA,NA,"response",1065.22300000122,325161.504999967,325158.85,325175.367,326240.590000001,326245.23,"2020-07-06T20:19:32.640Z",326259.015,NA,NA,NA,NA,NA,NA,NA,NA,"Respond_Right","click @Response_Right"
"Sequence","flow.Sequence","16_24",NA,NA,NA,"completion",2998.97000000125,323213.404999988,323208.236,323241.62,326240.590000001,326247.019999952,"2020-07-06T20:19:32.642Z",326259.015,NA,NA,NA,NA,NA,NA,NA,NA,NA,NA
"Start Button","canvas.Screen","16_25_0",NA,NA,NA,"response",1962.02999995474,326247.639999958,326242.306,326259.015,328221.044999955,328223.895000003,"2020-07-06T20:19:34.619Z",328226.21,NA,NA,NA,NA,NA,NA,NA,NA,"Start Position","click @Start_Button"
"Mask","canvas.Screen","16_25_1",NA,NA,NA,"timeout",199.957999999984,328224.724999978,328209.544,328226.21,328409.545,328410.609999963,"2020-07-06T20:19:34.806Z",328426.168,NA,NA,NA,NA,NA,NA,NA,NA,NA,NA
"Post_Manip Exp Trial","canvas.Screen","16_25_2",NA,NA,NA,"response",982.746999978146,328410.914999957,328409.545,328426.168,329408.914999978,329410.049999948,"2020-07-06T20:19:35.805Z",329426.371,NA,NA,NA,NA,NA,NA,NA,NA,"Respond_Right","click @Response_Right"
"Sequence","flow.Sequence","16_25",NA,NA,NA,"completion",3149.89999997814,326247.479999962,326242.306,326259.015,329408.914999978,329410.529999994,"2020-07-06T20:19:35.806Z",329426.371,NA,NA,NA,NA,NA,NA,NA,NA,NA,NA
"Start Button","canvas.Screen","16_26_0",NA,NA,NA,"response",1062.1539999934,329410.659999994,329409.696,329426.371,330488.524999993,330489.419999998,"2020-07-06T20:19:36.885Z",330493.258,NA,NA,NA,NA,NA,NA,NA,NA,"Start Position","click @Start_Button"
"Mask","canvas.Screen","16_26_1",NA,NA,NA,"timeout",200.122000000032,330489.574999956,330476.692,330493.258,330677.021,330679.329999955,"2020-07-06T20:19:37.075Z",330693.38,NA,NA,NA,NA,NA,NA,NA,NA,NA,NA
"Post_Manip Exp Trial","canvas.Screen","16_26_2",NA,NA,NA,"response",1147.92999998888,330680.259999994,330677.021,330693.38,331841.309999989,331845.585000003,"2020-07-06T20:19:38.241Z",331861.229,NA,NA,NA,NA,NA,NA,NA,NA,"Respond_Left","click @Response_Left"
"Sequence","flow.Sequence","16_26",NA,NA,NA,"completion",2414.9389999889,329410.634999978,329409.696,329426.371,331841.309999989,331847.299999965,"2020-07-06T20:19:38.243Z",331861.229,NA,NA,NA,NA,NA,NA,NA,NA,NA,NA
"Start Button","canvas.Screen","16_27_0",NA,NA,NA,"response",1311.36099997285,331847.909999953,331843.697,331861.229,333172.589999973,333175.569999963,"2020-07-06T20:19:39.571Z",333193.994,NA,NA,NA,NA,NA,NA,NA,NA,"Start Position","click @Start_Button"
"Mask","canvas.Screen","16_27_1",NA,NA,NA,"timeout",200.235999999975,333176.370000001,333177.409,333193.994,333377.519,333381.204999983,"2020-07-06T20:19:39.776Z",333394.23,NA,NA,NA,NA,NA,NA,NA,NA,NA,NA
"Post_Manip Exp Trial","canvas.Screen","16_27_2",NA,NA,NA,"response",994.289999978617,333381.999999983,333377.519,333394.23,334388.519999979,334391.769999987,"2020-07-06T20:19:40.787Z",334410.997,NA,NA,NA,NA,NA,NA,NA,NA,"Respond_Left","click @Response_Left"
"Sequence","flow.Sequence","16_27",NA,NA,NA,"completion",2527.29099997861,331847.769999993,331843.697,331861.229,334388.519999979,334393.339999951,"2020-07-06T20:19:40.789Z",334410.997,NA,NA,NA,NA,NA,NA,NA,NA,NA,NA
"Start Button","canvas.Screen","16_28_0",NA,NA,NA,"response",1203.7279999922,334393.974999955,334394.458,334410.997,335614.724999992,335617.534999968,"2020-07-06T20:19:42.013Z",335628.001,NA,NA,NA,NA,NA,NA,NA,NA,"Start Position","click @Start_Button"
"Mask","canvas.Screen","16_28_1",NA,NA,NA,"timeout",216.607000000018,335618.429999973,335611.399,335628.001,335811.329,335814.449999947,"2020-07-06T20:19:42.210Z",335844.608,NA,NA,NA,NA,NA,NA,NA,NA,NA,NA
